,subjID,gender,age,correct,RT,MT,sideCorrect,sideResp,condition,block,ratioSm,ratioLg,ratioDist,L_num,L_den,R_num,R_den,ratioNum,order,trial,experiment
0,RA1,1,,1.0,1024.0,561.0,1.0,1.0,Congruent,90,0.5,0.7,200.0,14.0,20.0,1.0,2.0,0.07,9050,0,disc
1,RA1,1,,1.0,1847.0,421.0,2.0,2.0,Congruent,90,0.5,0.7,200.0,6.0,12.0,7.0,10.0,0.86,9050,1,disc
2,RA1,1,,1.0,908.0,400.0,2.0,2.0,Congruent,90,0.5,0.8,300.0,9.0,18.0,20.0,25.0,0.45,9050,2,disc
3,RA1,1,,1.0,1073.0,601.0,2.0,2.0,Congruent,90,0.2,0.5,300.0,2.0,10.0,4.0,8.0,0.5,9050,3,disc
4,RA1,1,,1.0,840.0,422.0,2.0,2.0,Congruent,90,0.5,0.7,200.0,5.0,10.0,21.0,30.0,0.24,9050,4,disc
5,RA1,1,,1.0,1520.0,400.0,2.0,2.0,Congruent,90,0.3,0.4,100.0,9.0,30.0,10.0,25.0,0.9,9050,5,disc
6,RA1,1,,1.0,1151.0,401.0,1.0,1.0,Congruent,90,0.5,0.7,200.0,14.0,20.0,8.0,16.0,0.57,9050,6,disc
7,RA1,1,,0.0,1224.0,400.0,2.0,1.0,Incongruent,90,0.5,0.6,100.0,7.0,14.0,3.0,5.0,0.43,9050,7,disc
8,RA1,1,,1.0,930.0,361.0,2.0,2.0,Congruent,90,0.2,0.4,200.0,5.0,25.0,12.0,30.0,0.42,9050,8,disc
9,RA1,1,,1.0,1095.0,460.0,1.0,1.0,Congruent,90,0.2,0.4,200.0,8.0,20.0,5.0,25.0,0.62,9050,9,disc
10,RA1,1,,0.0,895.0,438.0,1.0,2.0,Incongruent,90,0.63,0.83,200.0,10.0,12.0,19.0,30.0,0.53,9050,10,disc
11,RA1,1,,1.0,965.0,560.0,2.0,2.0,Congruent,90,0.2,0.5,300.0,2.0,10.0,4.0,8.0,0.5,9050,11,disc
12,RA1,1,,1.0,822.0,300.0,2.0,2.0,Congruent,90,0.3,0.5,200.0,3.0,10.0,14.0,28.0,0.21,9050,12,disc
13,RA1,1,,1.0,1001.0,339.0,2.0,2.0,Congruent,90,0.5,0.8,300.0,4.0,8.0,8.0,10.0,0.5,9050,13,disc
14,RA1,1,,1.0,1188.0,500.0,1.0,1.0,Congruent,90,0.4,0.5,100.0,14.0,28.0,12.0,30.0,0.86,9050,14,disc
15,RA1,1,,1.0,1192.0,621.0,1.0,1.0,Congruent,90,0.1,0.3,200.0,3.0,10.0,2.0,20.0,0.67,9050,15,disc
16,RA1,1,,0.0,1331.0,578.0,1.0,2.0,Congruent,90,0.5,0.6,100.0,3.0,5.0,1.0,2.0,0.33,9050,16,disc
17,RA1,1,,1.0,1131.0,600.0,1.0,1.0,Incongruent,90,0.5,0.8,300.0,8.0,10.0,9.0,18.0,0.89,9050,17,disc
18,RA1,1,,1.0,1134.0,400.0,1.0,1.0,Congruent,90,0.2,0.5,300.0,13.0,26.0,1.0,5.0,0.08,9050,18,disc
19,RA1,1,,1.0,1181.0,520.0,1.0,1.0,Congruent,90,0.2,0.3,100.0,3.0,10.0,1.0,5.0,0.33,9050,19,disc
20,RA1,1,,1.0,2090.0,401.0,2.0,2.0,Congruent,90,0.5,0.6,100.0,2.0,4.0,15.0,25.0,0.13,9050,20,disc
21,RA1,1,,1.0,1397.0,400.0,1.0,1.0,Congruent,90,0.5,0.6,100.0,6.0,10.0,5.0,10.0,0.83,9050,21,disc
22,RA1,1,,1.0,1097.0,360.0,1.0,1.0,Congruent,90,0.4,0.5,100.0,16.0,32.0,4.0,10.0,0.25,9050,22,disc
23,RA1,1,,1.0,1435.0,400.0,2.0,2.0,Incongruent,90,0.3,0.5,200.0,9.0,30.0,7.0,14.0,0.78,9050,23,disc
24,RA1,1,,1.0,1341.0,200.0,2.0,2.0,Congruent,90,0.5,0.8,300.0,4.0,8.0,8.0,10.0,0.5,9050,24,disc
25,RA1,1,,1.0,971.0,501.0,1.0,1.0,Congruent,90,0.5,0.8,300.0,24.0,30.0,13.0,26.0,0.54,9050,25,disc
26,RA1,1,,1.0,832.0,360.0,2.0,2.0,Congruent,90,0.3,0.5,200.0,3.0,10.0,14.0,28.0,0.21,9050,26,disc
27,RA1,1,,1.0,1070.0,259.0,2.0,2.0,Congruent,90,0.67,0.97,300.0,16.0,24.0,29.0,30.0,0.55,9050,27,disc
28,RA1,1,,0.0,1009.0,440.0,2.0,1.0,Congruent,90,0.4,0.5,100.0,8.0,20.0,9.0,18.0,0.89,9050,28,disc
29,RA1,1,,1.0,776.0,400.0,2.0,2.0,Congruent,90,0.5,0.8,300.0,3.0,6.0,8.0,10.0,0.38,9050,29,disc
30,RA1,1,,1.0,925.0,322.0,2.0,2.0,Congruent,90,0.5,0.7,200.0,11.0,22.0,21.0,30.0,0.52,9050,30,disc
31,RA1,1,,0.0,4973.0,400.0,1.0,2.0,Congruent,90,0.4,0.5,100.0,6.0,12.0,4.0,10.0,0.67,9050,31,disc
32,RA1,1,,1.0,1197.0,698.0,1.0,1.0,Congruent,90,0.3,0.5,200.0,11.0,22.0,9.0,30.0,0.82,9050,32,disc
33,RA1,1,,1.0,835.0,400.0,2.0,2.0,Congruent,90,0.2,0.4,200.0,3.0,15.0,8.0,20.0,0.38,9050,33,disc
34,RA1,1,,1.0,1025.0,380.0,1.0,1.0,Congruent,90,0.4,0.5,100.0,14.0,28.0,12.0,30.0,0.86,9050,34,disc
35,RA1,1,,1.0,1008.0,400.0,2.0,2.0,Incongruent,90,0.2,0.5,300.0,5.0,25.0,4.0,8.0,0.8,9050,35,disc
36,RA1,1,,1.0,872.0,417.0,2.0,2.0,Congruent,90,0.4,0.5,100.0,2.0,5.0,7.0,14.0,0.29,9050,36,disc
37,RA1,1,,0.0,889.0,402.0,2.0,1.0,Incongruent,90,0.57,0.67,100.0,17.0,30.0,2.0,3.0,0.12,9050,37,disc
38,RA1,1,,1.0,1246.0,219.0,1.0,1.0,Congruent,90,0.4,0.6,200.0,9.0,15.0,8.0,20.0,0.89,9050,38,disc
39,RA1,1,,1.0,973.0,803.0,2.0,2.0,Congruent,90,0.5,0.8,300.0,15.0,30.0,20.0,25.0,0.75,9050,39,disc
40,RA1,1,,1.0,1126.0,200.0,2.0,2.0,Congruent,90,0.33,0.53,200.0,7.0,21.0,8.0,15.0,0.88,9050,40,disc
41,RA1,1,,1.0,869.0,601.0,2.0,2.0,Incongruent,90,0.47,0.67,200.0,7.0,15.0,4.0,6.0,0.57,9050,41,disc
42,RA1,1,,1.0,1126.0,200.0,1.0,1.0,Congruent,90,0.67,0.87,200.0,26.0,30.0,16.0,24.0,0.62,9050,42,disc
43,RA1,1,,1.0,668.0,280.0,2.0,2.0,Congruent,90,0.67,0.77,100.0,12.0,18.0,23.0,30.0,0.52,9050,43,disc
44,RA1,1,,1.0,1106.0,362.0,1.0,1.0,Congruent,90,0.5,0.6,100.0,3.0,5.0,2.0,4.0,0.67,9050,44,disc
45,RA1,1,,1.0,858.0,400.0,2.0,2.0,Congruent,90,0.5,0.7,200.0,8.0,16.0,21.0,30.0,0.38,9050,45,disc
46,RA1,1,,1.0,1229.0,781.0,1.0,1.0,Congruent,90,0.5,0.8,300.0,24.0,30.0,1.0,2.0,0.04,9050,46,disc
47,RA1,1,,1.0,1619.0,261.0,1.0,1.0,Congruent,90,0.2,0.4,200.0,4.0,10.0,3.0,15.0,0.75,9050,47,disc
48,RA1,1,,1.0,1272.0,360.0,1.0,1.0,Congruent,90,0.5,0.8,300.0,12.0,15.0,11.0,22.0,0.92,9050,48,disc
49,RA1,1,,1.0,1027.0,380.0,1.0,1.0,Congruent,90,0.5,0.8,300.0,8.0,10.0,2.0,4.0,0.25,9050,49,disc
50,RA1,1,,0.0,1203.0,381.0,1.0,2.0,Congruent,90,0.5,0.6,100.0,6.0,10.0,5.0,10.0,0.83,9050,50,disc
51,RA1,1,,1.0,1076.0,400.0,1.0,1.0,Congruent,90,0.5,0.6,100.0,12.0,20.0,7.0,14.0,0.58,9050,51,disc
52,RA1,1,,1.0,1294.0,2320.0,2.0,2.0,Congruent,90,0.4,0.5,100.0,2.0,5.0,3.0,6.0,0.67,9050,52,disc
53,RA1,1,,1.0,1487.0,300.0,2.0,2.0,Congruent,90,0.5,0.6,100.0,10.0,20.0,12.0,20.0,0.83,9050,53,disc
54,RA1,1,,1.0,1311.0,360.0,1.0,1.0,Congruent,90,0.5,0.6,100.0,3.0,5.0,1.0,2.0,0.33,9050,54,disc
55,RA1,1,,1.0,941.0,282.0,2.0,2.0,Incongruent,90,0.53,0.83,300.0,16.0,30.0,15.0,18.0,0.94,9050,55,disc
56,RA1,1,,1.0,914.0,262.0,2.0,2.0,Congruent,90,0.67,0.87,200.0,12.0,18.0,26.0,30.0,0.46,9050,56,disc
57,RA1,1,,1.0,661.0,359.0,2.0,2.0,Congruent,90,0.5,0.6,100.0,2.0,4.0,15.0,25.0,0.13,9050,57,disc
58,RA1,1,,1.0,1517.0,320.0,1.0,1.0,Congruent,90,0.2,0.5,300.0,3.0,6.0,1.0,5.0,0.33,9050,58,disc
59,RA1,1,,1.0,1146.0,239.0,2.0,2.0,Incongruent,90,0.53,0.83,300.0,16.0,30.0,5.0,6.0,0.31,9050,59,disc
60,RA1,1,,0.0,1208.0,780.0,1.0,2.0,Congruent,90,0.5,0.6,100.0,3.0,5.0,2.0,4.0,0.67,9050,60,disc
61,RA1,1,,1.0,1022.0,360.0,2.0,2.0,Congruent,90,0.13,0.33,200.0,4.0,30.0,8.0,24.0,0.5,9050,61,disc
62,RA1,1,,1.0,975.0,362.0,1.0,1.0,Congruent,90,0.5,0.8,300.0,24.0,30.0,8.0,16.0,0.33,9050,62,disc
63,RA1,1,,0.0,1135.0,400.0,1.0,2.0,Congruent,90,0.5,0.6,100.0,9.0,15.0,1.0,2.0,0.11,9050,63,disc
64,RA1,1,,0.0,1249.0,300.0,2.0,1.0,Congruent,90,0.5,0.7,200.0,4.0,8.0,7.0,10.0,0.57,9050,64,disc
65,RA1,1,,1.0,740.0,360.0,2.0,2.0,Congruent,90,0.5,0.8,300.0,3.0,6.0,8.0,10.0,0.38,9050,65,disc
66,RA1,1,,1.0,811.0,300.0,2.0,2.0,Congruent,90,0.53,0.83,300.0,8.0,15.0,10.0,12.0,0.8,9050,66,disc
67,RA1,1,,0.0,3045.0,261.0,1.0,2.0,Incongruent,90,0.2,0.5,300.0,2.0,4.0,6.0,30.0,0.33,9050,67,disc
68,RA1,1,,1.0,1222.0,219.0,2.0,2.0,Congruent,90,0.5,0.7,200.0,4.0,8.0,7.0,10.0,0.57,9050,68,disc
69,RA1,1,,1.0,856.0,240.0,2.0,2.0,Congruent,90,0.13,0.33,200.0,4.0,30.0,8.0,24.0,0.5,9050,69,disc
70,RA1,1,,1.0,1049.0,281.0,2.0,2.0,Congruent,90,0.2,0.5,300.0,3.0,15.0,13.0,26.0,0.23,9050,70,disc
71,RA1,1,,1.0,816.0,400.0,1.0,1.0,Congruent,90,0.17,0.47,300.0,7.0,15.0,2.0,12.0,0.29,9050,71,disc
72,RA1,1,,1.0,900.0,261.0,1.0,1.0,Congruent,90,0.2,0.5,300.0,6.0,12.0,2.0,10.0,0.33,9050,72,disc
73,RA1,1,,1.0,712.0,320.0,2.0,2.0,Congruent,90,0.25,0.35,100.0,2.0,8.0,7.0,20.0,0.29,9050,73,disc
74,RA1,1,,1.0,922.0,281.0,2.0,2.0,Congruent,90,0.3,0.5,200.0,6.0,20.0,11.0,22.0,0.55,9050,74,disc
75,RA1,1,,1.0,1006.0,200.0,1.0,1.0,Congruent,90,0.33,0.43,100.0,13.0,30.0,3.0,9.0,0.23,9050,75,disc
76,RA1,1,,0.0,883.0,200.0,1.0,2.0,Congruent,90,0.2,0.4,200.0,8.0,20.0,5.0,25.0,0.62,9050,76,disc
77,RA1,1,,1.0,1070.0,200.0,2.0,2.0,Congruent,90,0.4,0.5,100.0,6.0,15.0,9.0,18.0,0.67,9050,77,disc
78,RA1,1,,1.0,717.0,619.0,1.0,1.0,Congruent,90,0.5,0.7,200.0,14.0,20.0,1.0,2.0,0.07,9050,78,disc
79,RA1,1,,1.0,605.0,278.0,2.0,2.0,Congruent,90,0.5,0.8,300.0,5.0,10.0,24.0,30.0,0.21,9050,79,disc
80,RA1,1,,1.0,666.0,360.0,1.0,1.0,Congruent,90,0.67,0.87,200.0,26.0,30.0,18.0,27.0,0.69,9050,80,disc
81,RA1,1,,1.0,577.0,401.0,2.0,2.0,Congruent,90,0.5,0.8,300.0,4.0,8.0,20.0,25.0,0.2,9050,81,disc
82,RA1,1,,1.0,770.0,260.0,1.0,1.0,Congruent,90,0.4,0.5,100.0,9.0,18.0,2.0,5.0,0.22,9050,82,disc
83,RA1,1,,0.0,719.0,398.0,2.0,1.0,Incongruent,90,0.73,0.83,100.0,22.0,30.0,15.0,18.0,0.68,9050,83,disc
84,RA1,1,,1.0,956.0,227.0,1.0,1.0,Congruent,90,0.2,0.3,100.0,3.0,10.0,1.0,5.0,0.33,9050,84,disc
85,RA1,1,,1.0,1459.0,599.0,1.0,1.0,Congruent,90,0.5,0.6,100.0,3.0,5.0,1.0,2.0,0.33,9050,85,disc
86,RA1,1,,0.0,1213.0,201.0,1.0,2.0,Congruent,90,0.6,0.8,200.0,4.0,5.0,3.0,5.0,0.75,9050,86,disc
87,RA1,1,,1.0,886.0,300.0,2.0,2.0,Congruent,90,0.4,0.6,200.0,2.0,5.0,6.0,10.0,0.33,9050,87,disc
88,RA1,1,,1.0,686.0,460.0,2.0,2.0,Incongruent,90,0.5,0.7,200.0,8.0,16.0,7.0,10.0,0.88,9050,88,disc
89,RA1,1,,1.0,1587.0,359.0,2.0,2.0,Congruent,90,0.5,0.7,200.0,11.0,22.0,14.0,20.0,0.79,9050,89,disc
90,RA1,1,,1.0,825.0,260.0,2.0,2.0,Congruent,90,0.5,0.8,300.0,2.0,4.0,20.0,25.0,0.1,9050,90,disc
91,RA1,1,,1.0,711.0,222.0,2.0,2.0,Congruent,90,0.5,0.8,300.0,5.0,10.0,24.0,30.0,0.21,9050,91,disc
92,RA1,1,,1.0,707.0,300.0,1.0,1.0,Congruent,90,0.5,0.6,100.0,15.0,25.0,12.0,24.0,0.8,9050,92,disc
93,RA1,1,,1.0,738.0,240.0,2.0,2.0,Congruent,90,0.03,0.33,300.0,1.0,30.0,4.0,12.0,0.25,9050,93,disc
94,RA1,1,,1.0,619.0,321.0,2.0,2.0,Congruent,90,0.5,0.8,300.0,3.0,6.0,8.0,10.0,0.38,9050,94,disc
95,RA1,1,,1.0,851.0,296.0,1.0,1.0,Congruent,90,0.5,0.8,300.0,24.0,30.0,14.0,28.0,0.58,9050,95,disc
96,RA1,1,,0.0,1388.0,240.0,1.0,2.0,Congruent,90,0.3,0.5,200.0,4.0,8.0,3.0,10.0,0.75,9050,96,disc
97,RA1,1,,1.0,1073.0,321.0,1.0,1.0,Congruent,90,0.2,0.5,300.0,16.0,32.0,1.0,5.0,0.06,9050,97,disc
98,RA1,1,,1.0,789.0,282.0,2.0,2.0,Congruent,90,0.5,0.8,300.0,8.0,16.0,12.0,15.0,0.67,9050,98,disc
99,RA1,1,,0.0,1060.0,201.0,1.0,2.0,Congruent,90,0.5,0.7,200.0,14.0,20.0,11.0,22.0,0.79,9050,99,disc
100,RA1,1,,1.0,1120.0,300.0,1.0,1.0,Congruent,90,0.13,0.33,200.0,7.0,21.0,4.0,30.0,0.57,9050,100,disc
101,RA1,1,,1.0,765.0,239.0,2.0,2.0,Congruent,90,0.4,0.5,100.0,8.0,20.0,9.0,18.0,0.89,9050,101,disc
102,RA1,1,,1.0,928.0,360.0,2.0,2.0,Congruent,90,0.4,0.5,100.0,2.0,5.0,14.0,28.0,0.14,9050,102,disc
103,RA1,1,,1.0,848.0,320.0,1.0,1.0,Congruent,90,0.4,0.5,100.0,9.0,18.0,2.0,5.0,0.22,9050,103,disc
104,RA1,1,,1.0,649.0,280.0,2.0,2.0,Congruent,90,0.3,0.4,100.0,9.0,30.0,10.0,25.0,0.9,9050,104,disc
105,RA1,1,,1.0,906.0,279.0,1.0,1.0,Congruent,90,0.5,0.6,100.0,18.0,30.0,8.0,16.0,0.44,9050,105,disc
106,RA1,1,,1.0,655.0,279.0,2.0,2.0,Congruent,90,0.33,0.43,100.0,8.0,24.0,13.0,30.0,0.62,9050,106,disc
107,RA1,1,,1.0,744.0,221.0,1.0,1.0,Congruent,90,0.4,0.5,100.0,11.0,22.0,6.0,15.0,0.55,9050,107,disc
108,RA1,1,,1.0,584.0,219.0,2.0,2.0,Congruent,90,0.5,0.6,100.0,11.0,22.0,18.0,30.0,0.61,9050,108,disc
109,RA1,1,,1.0,811.0,201.0,1.0,1.0,Congruent,90,0.5,0.8,300.0,8.0,10.0,2.0,4.0,0.25,9050,109,disc
110,RA1,1,,1.0,569.0,280.0,2.0,2.0,Congruent,90,0.3,0.5,200.0,3.0,10.0,14.0,28.0,0.21,9050,110,disc
111,RA1,1,,1.0,866.0,239.0,1.0,1.0,Congruent,90,0.2,0.5,300.0,15.0,30.0,4.0,20.0,0.27,9050,111,disc
112,RA1,1,,0.0,863.0,280.0,1.0,2.0,Congruent,90,0.3,0.5,200.0,9.0,18.0,6.0,20.0,0.67,9050,112,disc
113,RA1,1,,1.0,569.0,260.0,2.0,2.0,Congruent,90,0.5,0.8,300.0,9.0,18.0,20.0,25.0,0.45,9050,113,disc
114,RA1,1,,1.0,1088.0,280.0,2.0,2.0,Congruent,90,0.2,0.5,300.0,2.0,10.0,4.0,8.0,0.5,9050,114,disc
115,RA1,1,,1.0,627.0,260.0,2.0,2.0,Congruent,90,0.5,0.7,200.0,3.0,6.0,14.0,20.0,0.21,9050,115,disc
116,RA1,1,,1.0,816.0,303.0,2.0,2.0,Congruent,90,0.3,0.5,200.0,3.0,10.0,6.0,12.0,0.5,9050,116,disc
117,RA1,1,,0.0,2010.0,300.0,2.0,1.0,Congruent,90,0.2,0.5,300.0,1.0,5.0,3.0,6.0,0.33,9050,117,disc
118,RA1,1,,1.0,628.0,260.0,2.0,2.0,Congruent,90,0.5,0.6,100.0,5.0,10.0,15.0,25.0,0.33,9050,118,disc
119,RA1,1,,1.0,913.0,300.0,1.0,1.0,Congruent,90,0.5,0.8,300.0,12.0,15.0,8.0,16.0,0.67,9050,119,disc
120,RA1,1,,1.0,821.0,240.0,2.0,2.0,Incongruent,50,0.2,0.4,200.0,5.0,25.0,2.0,5.0,0.4,9050,120,disc
121,RA1,1,,1.0,641.0,281.0,2.0,2.0,Congruent,50,0.5,0.8,300.0,1.0,2.0,16.0,20.0,0.06,9050,121,disc
122,RA1,1,,1.0,731.0,301.0,2.0,2.0,Congruent,50,0.2,0.5,300.0,6.0,30.0,16.0,32.0,0.38,9050,122,disc
123,RA1,1,,1.0,865.0,361.0,1.0,1.0,Congruent,50,0.15,0.25,100.0,4.0,16.0,3.0,20.0,0.75,9050,123,disc
124,RA1,1,,0.0,805.0,241.0,2.0,1.0,Incongruent,50,0.4,0.6,200.0,10.0,25.0,9.0,15.0,0.9,9050,124,disc
125,RA1,1,,1.0,720.0,280.0,2.0,2.0,Congruent,50,0.13,0.33,200.0,4.0,30.0,8.0,24.0,0.5,9050,125,disc
126,RA1,1,,1.0,652.0,341.0,2.0,2.0,Congruent,50,0.5,0.7,200.0,7.0,14.0,14.0,20.0,0.5,9050,126,disc
127,RA1,1,,1.0,1101.0,200.0,1.0,1.0,Congruent,50,0.2,0.5,300.0,11.0,22.0,5.0,25.0,0.45,9050,127,disc
128,RA1,1,,0.0,781.0,582.0,2.0,1.0,Incongruent,50,0.4,0.7,300.0,10.0,25.0,7.0,10.0,0.7,9050,128,disc
129,RA1,1,,0.0,631.0,242.0,1.0,2.0,Incongruent,50,0.63,0.83,200.0,10.0,12.0,19.0,30.0,0.53,9050,129,disc
130,RA1,1,,1.0,729.0,300.0,2.0,2.0,Congruent,50,0.3,0.5,200.0,3.0,10.0,9.0,18.0,0.33,9050,130,disc
131,RA1,1,,0.0,788.0,201.0,2.0,1.0,Incongruent,50,0.5,0.8,300.0,8.0,16.0,4.0,5.0,0.5,9050,131,disc
132,RA1,1,,1.0,568.0,320.0,2.0,2.0,Congruent,50,0.5,0.7,200.0,11.0,22.0,21.0,30.0,0.52,9050,132,disc
133,RA1,1,,0.0,616.0,321.0,1.0,2.0,Incongruent,50,0.4,0.5,100.0,7.0,14.0,10.0,25.0,0.7,9050,133,disc
134,RA1,1,,0.0,678.0,320.0,2.0,1.0,Incongruent,50,0.4,0.7,300.0,12.0,30.0,7.0,10.0,0.58,9050,134,disc
135,RA1,1,,1.0,1103.0,301.0,2.0,2.0,Incongruent,50,0.2,0.5,300.0,2.0,10.0,1.0,2.0,0.5,9050,135,disc
136,RA1,1,,1.0,1199.0,201.0,2.0,2.0,Incongruent,50,0.3,0.5,200.0,9.0,30.0,8.0,16.0,0.89,9050,136,disc
137,RA1,1,,1.0,1415.0,1161.0,1.0,1.0,Congruent,50,0.63,0.83,200.0,20.0,24.0,19.0,30.0,0.95,9050,137,disc
138,RA1,1,,1.0,1155.0,502.0,2.0,2.0,Incongruent,50,0.47,0.67,200.0,7.0,15.0,4.0,6.0,0.57,9050,138,disc
139,RA1,1,,1.0,1187.0,281.0,1.0,1.0,Congruent,50,0.3,0.5,200.0,11.0,22.0,9.0,30.0,0.82,9050,139,disc
140,RA1,1,,1.0,951.0,258.0,2.0,2.0,Incongruent,50,0.47,0.67,200.0,14.0,30.0,6.0,9.0,0.43,9050,140,disc
141,RA1,1,,1.0,1113.0,281.0,1.0,1.0,Incongruent,50,0.5,0.8,300.0,4.0,5.0,16.0,32.0,0.25,9050,141,disc
142,RA1,1,,1.0,1184.0,241.0,2.0,2.0,Congruent,50,0.67,0.77,100.0,12.0,18.0,23.0,30.0,0.52,9050,142,disc
143,RA1,1,,0.0,863.0,321.0,1.0,2.0,Congruent,50,0.6,0.8,200.0,8.0,10.0,3.0,5.0,0.38,9050,143,disc
144,RA1,1,,1.0,962.0,298.0,1.0,1.0,Incongruent,50,0.5,0.8,300.0,8.0,10.0,11.0,22.0,0.73,9050,144,disc
145,RA1,1,,1.0,946.0,201.0,2.0,2.0,Incongruent,50,0.4,0.6,200.0,10.0,25.0,9.0,15.0,0.9,9050,145,disc
146,RA1,1,,1.0,722.0,280.0,2.0,2.0,Incongruent,50,0.2,0.5,300.0,4.0,20.0,3.0,6.0,0.75,9050,146,disc
147,RA1,1,,1.0,995.0,280.0,2.0,2.0,Incongruent,50,0.5,0.6,100.0,11.0,22.0,9.0,15.0,0.82,9050,147,disc
148,RA1,1,,1.0,864.0,400.0,1.0,1.0,Congruent,50,0.5,0.8,300.0,20.0,25.0,4.0,8.0,0.2,9050,148,disc
149,RA1,1,,0.0,1062.0,460.0,1.0,2.0,Congruent,50,0.5,0.8,300.0,24.0,30.0,1.0,2.0,0.04,9050,149,disc
150,RA1,1,,1.0,1001.0,1001.0,1.0,1.0,Congruent,50,0.5,0.8,300.0,24.0,30.0,1.0,2.0,0.04,9050,150,disc
151,RA1,1,,1.0,995.0,300.0,2.0,2.0,Congruent,50,0.5,0.6,100.0,16.0,32.0,18.0,30.0,0.89,9050,151,disc
152,RA1,1,,1.0,1051.0,339.0,2.0,2.0,Congruent,50,0.2,0.5,300.0,3.0,15.0,13.0,26.0,0.23,9050,152,disc
153,RA1,1,,1.0,763.0,279.0,2.0,2.0,Incongruent,50,0.6,0.8,200.0,18.0,30.0,8.0,10.0,0.44,9050,153,disc
154,RA1,1,,1.0,740.0,299.0,2.0,2.0,Congruent,50,0.3,0.5,200.0,3.0,10.0,11.0,22.0,0.27,9050,154,disc
155,RA1,1,,1.0,1009.0,241.0,2.0,2.0,Congruent,50,0.2,0.4,200.0,5.0,25.0,6.0,15.0,0.83,9050,155,disc
156,RA1,1,,1.0,653.0,601.0,1.0,1.0,Incongruent,50,0.45,0.75,300.0,3.0,4.0,9.0,20.0,0.33,9050,156,disc
157,RA1,1,,1.0,843.0,362.0,1.0,1.0,Incongruent,50,0.37,0.67,300.0,6.0,9.0,11.0,30.0,0.55,9050,157,disc
158,RA1,1,,1.0,1046.0,240.0,2.0,2.0,Congruent,50,0.2,0.5,300.0,3.0,15.0,8.0,16.0,0.38,9050,158,disc
159,RA1,1,,1.0,903.0,281.0,2.0,2.0,Congruent,50,0.25,0.35,100.0,2.0,8.0,7.0,20.0,0.29,9050,159,disc
160,RA1,1,,0.0,892.0,499.0,1.0,2.0,Congruent,50,0.4,0.5,100.0,11.0,22.0,6.0,15.0,0.55,9050,160,disc
161,RA1,1,,1.0,808.0,281.0,2.0,2.0,Incongruent,50,0.5,0.8,300.0,8.0,16.0,4.0,5.0,0.5,9050,161,disc
162,RA1,1,,1.0,1020.0,261.0,1.0,1.0,Incongruent,50,0.4,0.5,100.0,6.0,12.0,8.0,20.0,0.75,9050,162,disc
163,RA1,1,,0.0,706.0,281.0,1.0,2.0,Incongruent,50,0.5,0.7,200.0,7.0,10.0,13.0,26.0,0.54,9050,163,disc
164,RA1,1,,1.0,773.0,258.0,1.0,1.0,Congruent,50,0.5,0.6,100.0,6.0,10.0,5.0,10.0,0.83,9050,164,disc
165,RA1,1,,1.0,670.0,279.0,2.0,2.0,Congruent,50,0.2,0.5,300.0,4.0,20.0,9.0,18.0,0.44,9050,165,disc
166,RA1,1,,1.0,688.0,241.0,2.0,2.0,Incongruent,50,0.6,0.7,100.0,18.0,30.0,7.0,10.0,0.39,9050,166,disc
167,RA1,1,,1.0,592.0,261.0,2.0,2.0,Congruent,50,0.17,0.27,100.0,2.0,12.0,8.0,30.0,0.25,9050,167,disc
168,RA1,1,,1.0,608.0,302.0,2.0,2.0,Incongruent,50,0.47,0.67,200.0,14.0,30.0,4.0,6.0,0.29,9050,168,disc
169,RA1,1,,1.0,609.0,380.0,1.0,1.0,Congruent,50,0.4,0.5,100.0,16.0,32.0,4.0,10.0,0.25,9050,169,disc
170,RA1,1,,0.0,780.0,201.0,1.0,2.0,Incongruent,50,0.55,0.75,200.0,9.0,12.0,11.0,20.0,0.82,9050,170,disc
171,RA1,1,,1.0,561.0,563.0,1.0,1.0,Incongruent,50,0.5,0.8,300.0,8.0,10.0,12.0,24.0,0.67,9050,171,disc
172,RA1,1,,1.0,843.0,281.0,1.0,1.0,Congruent,50,0.33,0.63,300.0,19.0,30.0,9.0,27.0,0.47,9050,172,disc
173,RA1,1,,1.0,750.0,419.0,2.0,2.0,Incongruent,50,0.6,0.9,300.0,12.0,20.0,9.0,10.0,0.75,9050,173,disc
174,RA1,1,,1.0,770.0,339.0,2.0,2.0,Incongruent,50,0.5,0.6,100.0,9.0,18.0,3.0,5.0,0.33,9050,174,disc
175,RA1,1,,1.0,720.0,361.0,1.0,1.0,Congruent,50,0.3,0.5,200.0,11.0,22.0,9.0,30.0,0.82,9050,175,disc
176,RA1,1,,1.0,720.0,302.0,1.0,1.0,Incongruent,50,0.5,0.8,300.0,4.0,5.0,13.0,26.0,0.31,9050,176,disc
177,RA1,1,,1.0,609.0,301.0,2.0,2.0,Incongruent,50,0.2,0.5,300.0,5.0,25.0,1.0,2.0,0.2,9050,177,disc
178,RA1,1,,1.0,615.0,460.0,2.0,2.0,Congruent,50,0.2,0.5,300.0,2.0,10.0,4.0,8.0,0.5,9050,178,disc
179,RA1,1,,1.0,772.0,381.0,1.0,1.0,Congruent,50,0.2,0.5,300.0,7.0,14.0,5.0,25.0,0.71,9050,179,disc
180,RA1,1,,1.0,564.0,301.0,2.0,2.0,Incongruent,50,0.4,0.5,100.0,10.0,25.0,9.0,18.0,0.9,9050,180,disc
181,RA1,1,,0.0,899.0,201.0,1.0,2.0,Congruent,50,0.4,0.5,100.0,9.0,18.0,8.0,20.0,0.89,9050,181,disc
182,RA1,1,,0.0,1104.0,321.0,2.0,1.0,Incongruent,50,0.5,0.7,200.0,8.0,16.0,7.0,10.0,0.88,9050,182,disc
183,RA1,1,,1.0,977.0,241.0,1.0,1.0,Congruent,50,0.15,0.25,100.0,4.0,16.0,3.0,20.0,0.75,9050,183,disc
184,RA1,1,,1.0,698.0,301.0,2.0,2.0,Congruent,50,0.5,0.7,200.0,7.0,14.0,14.0,20.0,0.5,9050,184,disc
185,RA1,1,,0.0,679.0,280.0,1.0,2.0,Congruent,50,0.4,0.6,200.0,9.0,15.0,8.0,20.0,0.89,9050,185,disc
186,RA1,1,,0.0,3830.0,223.0,2.0,1.0,Incongruent,50,0.3,0.5,200.0,9.0,30.0,4.0,8.0,0.44,9050,186,disc
187,RA1,1,,1.0,940.0,301.0,2.0,2.0,Incongruent,50,0.6,0.8,200.0,12.0,20.0,8.0,10.0,0.67,9050,187,disc
188,RA1,1,,0.0,589.0,461.0,1.0,2.0,Incongruent,50,0.73,0.83,100.0,10.0,12.0,22.0,30.0,0.45,9050,188,disc
189,RA1,1,,1.0,2991.0,261.0,2.0,2.0,Congruent,50,0.2,0.5,300.0,1.0,5.0,15.0,30.0,0.07,9050,189,disc
190,RA1,1,,1.0,930.0,241.0,1.0,1.0,Congruent,50,0.67,0.77,100.0,23.0,30.0,16.0,24.0,0.7,9050,190,disc
191,RA1,1,,0.0,1222.0,320.0,2.0,1.0,Congruent,50,0.4,0.5,100.0,8.0,20.0,9.0,18.0,0.89,9050,191,disc
192,RA1,1,,0.0,1150.0,401.0,1.0,2.0,Congruent,50,0.33,0.53,200.0,8.0,15.0,1.0,3.0,0.12,9050,192,disc
193,RA1,1,,0.0,1266.0,240.0,1.0,2.0,Incongruent,50,0.5,0.6,100.0,3.0,5.0,4.0,8.0,0.75,9050,193,disc
194,RA1,1,,1.0,895.0,300.0,2.0,2.0,Congruent,50,0.17,0.27,100.0,2.0,12.0,4.0,15.0,0.5,9050,194,disc
195,RA1,1,,1.0,960.0,400.0,2.0,2.0,Incongruent,50,0.45,0.75,300.0,9.0,20.0,3.0,4.0,0.33,9050,195,disc
196,RA1,1,,1.0,952.0,320.0,1.0,1.0,Incongruent,50,0.5,0.8,300.0,8.0,10.0,13.0,26.0,0.62,9050,196,disc
197,RA1,1,,1.0,1608.0,241.0,2.0,2.0,Incongruent,50,0.2,0.5,300.0,2.0,10.0,1.0,2.0,0.5,9050,197,disc
198,RA1,1,,1.0,1694.0,261.0,2.0,2.0,Congruent,50,0.4,0.6,200.0,2.0,5.0,6.0,10.0,0.33,9050,198,disc
199,RA1,1,,1.0,977.0,221.0,2.0,2.0,Incongruent,50,0.5,0.8,300.0,6.0,12.0,4.0,5.0,0.67,9050,199,disc
200,RA1,1,,1.0,831.0,241.0,2.0,2.0,Congruent,50,0.4,0.5,100.0,8.0,20.0,9.0,18.0,0.89,9050,200,disc
201,RA1,1,,1.0,637.0,421.0,2.0,2.0,Congruent,50,0.5,0.7,200.0,3.0,6.0,14.0,20.0,0.21,9050,201,disc
202,RA1,1,,1.0,890.0,300.0,1.0,1.0,Incongruent,50,0.2,0.4,200.0,2.0,5.0,6.0,30.0,0.33,9050,202,disc
203,RA1,1,,1.0,801.0,260.0,2.0,2.0,Incongruent,50,0.7,0.8,100.0,14.0,20.0,4.0,5.0,0.29,9050,203,disc
204,RA1,1,,1.0,1109.0,280.0,1.0,1.0,Congruent,50,0.17,0.47,300.0,7.0,15.0,1.0,6.0,0.14,9050,204,disc
205,RA1,1,,1.0,874.0,281.0,2.0,2.0,Congruent,50,0.5,0.8,300.0,8.0,16.0,12.0,15.0,0.67,9050,205,disc
206,RA1,1,,1.0,947.0,498.0,1.0,1.0,Incongruent,50,0.5,0.7,200.0,7.0,10.0,9.0,18.0,0.78,9050,206,disc
207,RA1,1,,1.0,1088.0,278.0,1.0,1.0,Incongruent,50,0.5,0.6,100.0,6.0,10.0,11.0,22.0,0.55,9050,207,disc
208,RA1,1,,1.0,1131.0,201.0,1.0,1.0,Incongruent,50,0.75,0.95,200.0,19.0,20.0,21.0,28.0,0.9,9050,208,disc
209,RA1,1,,1.0,1188.0,421.0,2.0,2.0,Congruent,50,0.3,0.4,100.0,6.0,20.0,12.0,30.0,0.5,9050,209,disc
210,RA1,1,,1.0,1012.0,462.0,2.0,2.0,Incongruent,50,0.7,0.8,100.0,14.0,20.0,8.0,10.0,0.57,9050,210,disc
211,RA1,1,,1.0,1068.0,621.0,2.0,2.0,Congruent,50,0.2,0.5,300.0,2.0,10.0,4.0,8.0,0.5,9050,211,disc
212,RA1,1,,1.0,852.0,378.0,2.0,2.0,Congruent,50,0.55,0.75,200.0,11.0,20.0,18.0,24.0,0.61,9050,212,disc
213,RA1,1,,1.0,801.0,301.0,1.0,1.0,Incongruent,50,0.2,0.5,300.0,3.0,6.0,5.0,25.0,0.6,9050,213,disc
214,RA1,1,,1.0,979.0,341.0,2.0,2.0,Incongruent,50,0.6,0.8,200.0,15.0,25.0,12.0,15.0,0.8,9050,214,disc
215,RA1,1,,1.0,948.0,321.0,2.0,2.0,Incongruent,50,0.5,0.8,300.0,13.0,26.0,4.0,5.0,0.31,9050,215,disc
216,RA1,1,,1.0,847.0,261.0,1.0,1.0,Incongruent,50,0.5,0.6,100.0,6.0,10.0,13.0,26.0,0.46,9050,216,disc
217,RA1,1,,1.0,892.0,521.0,1.0,1.0,Congruent,50,0.5,0.8,300.0,16.0,20.0,7.0,14.0,0.44,9050,217,disc
218,RA1,1,,1.0,992.0,1259.0,1.0,1.0,Congruent,50,0.15,0.25,100.0,6.0,24.0,3.0,20.0,0.5,9050,218,disc
219,RA1,1,,0.0,907.0,361.0,2.0,1.0,Incongruent,50,0.47,0.67,200.0,7.0,15.0,4.0,6.0,0.57,9050,219,disc
220,RA1,1,,1.0,802.0,441.0,2.0,2.0,Congruent,50,0.3,0.5,200.0,6.0,20.0,11.0,22.0,0.55,9050,220,disc
221,RA1,1,,0.0,687.0,2421.0,1.0,2.0,Incongruent,50,0.5,0.6,100.0,3.0,5.0,8.0,16.0,0.38,9050,221,disc
222,RA1,1,,1.0,1090.0,359.0,2.0,2.0,Incongruent,50,0.57,0.67,100.0,17.0,30.0,2.0,3.0,0.12,9050,222,disc
223,RA1,1,,1.0,1023.0,200.0,2.0,2.0,Congruent,50,0.2,0.5,300.0,3.0,15.0,11.0,22.0,0.27,9050,223,disc
224,RA1,1,,1.0,1120.0,381.0,1.0,1.0,Incongruent,50,0.4,0.5,100.0,2.0,4.0,10.0,25.0,0.2,9050,224,disc
225,RA1,1,,1.0,1184.0,280.0,1.0,1.0,Congruent,50,0.13,0.33,200.0,7.0,21.0,4.0,30.0,0.57,9050,225,disc
226,RA1,1,,1.0,1107.0,340.0,1.0,1.0,Incongruent,50,0.4,0.5,100.0,4.0,8.0,12.0,30.0,0.33,9050,226,disc
227,RA1,1,,1.0,1029.0,760.0,1.0,1.0,Incongruent,50,0.4,0.5,100.0,1.0,2.0,4.0,10.0,0.25,9050,227,disc
228,RA1,1,,1.0,1144.0,360.0,1.0,1.0,Congruent,50,0.67,0.77,100.0,23.0,30.0,16.0,24.0,0.7,9050,228,disc
229,RA1,1,,1.0,1144.0,418.0,2.0,2.0,Congruent,50,0.5,0.6,100.0,16.0,32.0,18.0,30.0,0.89,9050,229,disc
230,RA1,1,,0.0,1002.0,401.0,1.0,2.0,Incongruent,50,0.4,0.5,100.0,3.0,6.0,8.0,20.0,0.38,9050,230,disc
231,RA1,1,,1.0,828.0,282.0,1.0,1.0,Congruent,50,0.2,0.5,300.0,3.0,6.0,1.0,5.0,0.33,9050,231,disc
232,RA1,1,,1.0,1056.0,282.0,1.0,1.0,Congruent,50,0.4,0.5,100.0,14.0,28.0,12.0,30.0,0.86,9050,232,disc
233,RA1,1,,0.0,1708.0,283.0,1.0,2.0,Congruent,50,0.6,0.8,200.0,4.0,5.0,3.0,5.0,0.75,9050,233,disc
234,RA1,1,,1.0,976.0,278.0,1.0,1.0,Incongruent,50,0.83,0.93,100.0,14.0,15.0,15.0,18.0,0.93,9050,234,disc
235,RA1,1,,1.0,1026.0,381.0,1.0,1.0,Congruent,50,0.7,0.8,100.0,8.0,10.0,7.0,10.0,0.88,9050,235,disc
236,RA1,1,,1.0,870.0,261.0,1.0,1.0,Congruent,50,0.5,0.8,300.0,16.0,20.0,11.0,22.0,0.69,9050,236,disc
237,RA1,1,,1.0,920.0,201.0,1.0,1.0,Incongruent,50,0.4,0.5,100.0,4.0,8.0,12.0,30.0,0.33,9050,237,disc
238,RA1,1,,1.0,1080.0,201.0,2.0,2.0,Congruent,50,0.05,0.25,200.0,1.0,20.0,6.0,24.0,0.17,9050,238,disc
239,RA1,1,,0.0,1553.0,221.0,1.0,2.0,Incongruent,50,0.3,0.5,200.0,2.0,4.0,6.0,20.0,0.33,9050,239,disc
240,RA2,1,20.0,1.0,1498.0,662.0,2.0,2.0,Congruent,90,0.4,0.6,200.0,2.0,5.0,12.0,20.0,0.17,9050,0,disc
241,RA2,1,20.0,1.0,1508.0,542.0,1.0,1.0,Congruent,90,0.25,0.35,100.0,7.0,20.0,3.0,12.0,0.43,9050,1,disc
242,RA2,1,20.0,1.0,1109.0,540.0,2.0,2.0,Congruent,90,0.4,0.5,100.0,4.0,10.0,8.0,16.0,0.5,9050,2,disc
243,RA2,1,20.0,1.0,1065.0,621.0,1.0,1.0,Congruent,90,0.5,0.8,300.0,16.0,20.0,3.0,6.0,0.19,9050,3,disc
244,RA2,1,20.0,1.0,1038.0,656.0,1.0,1.0,Congruent,90,0.45,0.75,300.0,21.0,28.0,9.0,20.0,0.43,9050,4,disc
245,RA2,1,20.0,1.0,1057.0,600.0,1.0,1.0,Congruent,90,0.5,0.8,300.0,16.0,20.0,3.0,6.0,0.19,9050,5,disc
246,RA2,1,20.0,1.0,1032.0,558.0,2.0,2.0,Congruent,90,0.5,0.8,300.0,12.0,24.0,24.0,30.0,0.5,9050,6,disc
247,RA2,1,20.0,1.0,1074.0,640.0,2.0,2.0,Congruent,90,0.5,0.6,100.0,8.0,16.0,15.0,25.0,0.53,9050,7,disc
248,RA2,1,20.0,1.0,1086.0,638.0,2.0,2.0,Congruent,90,0.33,0.63,300.0,9.0,27.0,19.0,30.0,0.47,9050,8,disc
249,RA2,1,20.0,1.0,1530.0,640.0,1.0,1.0,Incongruent,90,0.67,0.87,200.0,13.0,15.0,18.0,27.0,0.72,9050,9,disc
250,RA2,1,20.0,1.0,1727.0,500.0,2.0,2.0,Congruent,90,0.3,0.5,200.0,3.0,10.0,13.0,26.0,0.23,9050,10,disc
251,RA2,1,20.0,1.0,1144.0,918.0,1.0,1.0,Congruent,90,0.4,0.5,100.0,11.0,22.0,6.0,15.0,0.55,9050,11,disc
252,RA2,1,20.0,1.0,1418.0,802.0,1.0,1.0,Congruent,90,0.5,0.6,100.0,15.0,25.0,14.0,28.0,0.93,9050,12,disc
253,RA2,1,20.0,1.0,1978.0,660.0,1.0,1.0,Incongruent,90,0.5,0.8,300.0,4.0,5.0,11.0,22.0,0.36,9050,13,disc
254,RA2,1,20.0,1.0,1279.0,684.0,2.0,2.0,Congruent,90,0.2,0.5,300.0,3.0,15.0,11.0,22.0,0.27,9050,14,disc
255,RA2,1,20.0,1.0,1213.0,622.0,1.0,1.0,Congruent,90,0.5,0.8,300.0,24.0,30.0,5.0,10.0,0.21,9050,15,disc
256,RA2,1,20.0,1.0,1420.0,578.0,2.0,2.0,Congruent,90,0.3,0.5,200.0,3.0,10.0,14.0,28.0,0.21,9050,16,disc
257,RA2,1,20.0,1.0,1117.0,682.0,1.0,1.0,Congruent,90,0.5,0.7,200.0,21.0,30.0,2.0,4.0,0.1,9050,17,disc
258,RA2,1,20.0,1.0,1357.0,620.0,1.0,1.0,Congruent,90,0.2,0.5,300.0,10.0,20.0,5.0,25.0,0.5,9050,18,disc
259,RA2,1,20.0,0.0,1375.0,1220.0,2.0,1.0,Congruent,90,0.5,0.7,200.0,1.0,2.0,7.0,10.0,0.14,9050,19,disc
260,RA2,1,20.0,1.0,1270.0,622.0,2.0,2.0,Congruent,90,0.5,0.7,200.0,3.0,6.0,14.0,20.0,0.21,9050,20,disc
261,RA2,1,20.0,1.0,1172.0,580.0,2.0,2.0,Congruent,90,0.3,0.5,200.0,6.0,20.0,11.0,22.0,0.55,9050,21,disc
262,RA2,1,20.0,1.0,1152.0,642.0,2.0,2.0,Congruent,90,0.2,0.5,300.0,1.0,5.0,9.0,18.0,0.11,9050,22,disc
263,RA2,1,20.0,1.0,1413.0,496.0,2.0,2.0,Congruent,90,0.2,0.5,300.0,2.0,10.0,4.0,8.0,0.5,9050,23,disc
264,RA2,1,20.0,1.0,1428.0,559.0,2.0,2.0,Congruent,90,0.47,0.67,200.0,7.0,15.0,12.0,18.0,0.58,9050,24,disc
265,RA2,1,20.0,1.0,1129.0,620.0,1.0,1.0,Congruent,90,0.4,0.5,100.0,9.0,18.0,2.0,5.0,0.22,9050,25,disc
266,RA2,1,20.0,1.0,967.0,720.0,2.0,2.0,Congruent,90,0.2,0.5,300.0,3.0,15.0,11.0,22.0,0.27,9050,26,disc
267,RA2,1,20.0,1.0,1207.0,622.0,1.0,1.0,Congruent,90,0.5,0.6,100.0,15.0,25.0,10.0,20.0,0.67,9050,27,disc
268,RA2,1,20.0,1.0,990.0,618.0,2.0,2.0,Congruent,90,0.55,0.75,200.0,11.0,20.0,18.0,24.0,0.61,9050,28,disc
269,RA2,1,20.0,1.0,946.0,600.0,1.0,1.0,Congruent,90,0.5,0.7,200.0,21.0,30.0,11.0,22.0,0.52,9050,29,disc
270,RA2,1,20.0,1.0,1347.0,578.0,2.0,2.0,Incongruent,90,0.4,0.5,100.0,12.0,30.0,11.0,22.0,0.92,9050,30,disc
271,RA2,1,20.0,0.0,1667.0,583.0,2.0,1.0,Congruent,90,0.5,0.7,200.0,4.0,8.0,7.0,10.0,0.57,9050,31,disc
272,RA2,1,20.0,1.0,1062.0,541.0,2.0,2.0,Incongruent,90,0.3,0.5,200.0,6.0,20.0,1.0,2.0,0.17,9050,32,disc
273,RA2,1,20.0,1.0,1129.0,719.0,1.0,1.0,Congruent,90,0.5,0.7,200.0,21.0,30.0,11.0,22.0,0.52,9050,33,disc
274,RA2,1,20.0,1.0,1110.0,620.0,1.0,1.0,Congruent,90,0.4,0.5,100.0,15.0,30.0,4.0,10.0,0.27,9050,34,disc
275,RA2,1,20.0,1.0,1054.0,561.0,2.0,2.0,Congruent,90,0.5,0.7,200.0,5.0,10.0,21.0,30.0,0.24,9050,35,disc
276,RA2,1,20.0,1.0,1209.0,499.0,2.0,2.0,Congruent,90,0.5,0.8,300.0,2.0,4.0,8.0,10.0,0.25,9050,36,disc
277,RA2,1,20.0,0.0,1184.0,685.0,2.0,1.0,Incongruent,90,0.5,0.8,300.0,13.0,26.0,4.0,5.0,0.31,9050,37,disc
278,RA2,1,20.0,1.0,1205.0,562.0,1.0,1.0,Incongruent,90,0.2,0.5,300.0,2.0,4.0,6.0,30.0,0.33,9050,38,disc
279,RA2,1,20.0,1.0,1077.0,501.0,1.0,1.0,Congruent,90,0.4,0.5,100.0,4.0,8.0,2.0,5.0,0.5,9050,39,disc
280,RA2,1,20.0,1.0,1129.0,603.0,1.0,1.0,Congruent,90,0.3,0.5,200.0,12.0,24.0,3.0,10.0,0.25,9050,40,disc
281,RA2,1,20.0,1.0,959.0,500.0,2.0,2.0,Congruent,90,0.53,0.83,300.0,8.0,15.0,15.0,18.0,0.53,9050,41,disc
282,RA2,1,20.0,1.0,1000.0,599.0,2.0,2.0,Congruent,90,0.4,0.5,100.0,2.0,5.0,3.0,6.0,0.67,9050,42,disc
283,RA2,1,20.0,1.0,979.0,621.0,2.0,2.0,Congruent,90,0.5,0.8,300.0,2.0,4.0,20.0,25.0,0.1,9050,43,disc
284,RA2,1,20.0,1.0,1118.0,482.0,2.0,2.0,Congruent,90,0.5,0.6,100.0,8.0,16.0,15.0,25.0,0.53,9050,44,disc
285,RA2,1,20.0,1.0,1075.0,521.0,2.0,2.0,Congruent,90,0.2,0.5,300.0,5.0,25.0,14.0,28.0,0.36,9050,45,disc
286,RA2,1,20.0,0.0,1131.0,623.0,1.0,2.0,Incongruent,90,0.4,0.5,100.0,8.0,16.0,10.0,25.0,0.8,9050,46,disc
287,RA2,1,20.0,1.0,1050.0,618.0,1.0,1.0,Congruent,90,0.25,0.55,300.0,11.0,20.0,3.0,12.0,0.27,9050,47,disc
288,RA2,1,20.0,1.0,996.0,617.0,1.0,1.0,Congruent,90,0.5,0.8,300.0,24.0,30.0,1.0,2.0,0.04,9050,48,disc
289,RA2,1,20.0,1.0,1171.0,621.0,1.0,1.0,Congruent,90,0.15,0.25,100.0,4.0,16.0,3.0,20.0,0.75,9050,49,disc
290,RA2,1,20.0,0.0,1068.0,622.0,1.0,2.0,Congruent,90,0.4,0.5,100.0,9.0,18.0,8.0,20.0,0.89,9050,50,disc
291,RA2,1,20.0,1.0,998.0,701.0,2.0,2.0,Congruent,90,0.3,0.5,200.0,3.0,10.0,9.0,18.0,0.33,9050,51,disc
292,RA2,1,20.0,1.0,1191.0,657.0,1.0,1.0,Congruent,90,0.3,0.5,200.0,4.0,8.0,3.0,10.0,0.75,9050,52,disc
293,RA2,1,20.0,1.0,1117.0,803.0,2.0,2.0,Congruent,90,0.3,0.5,200.0,3.0,10.0,7.0,14.0,0.43,9050,53,disc
294,RA2,1,20.0,1.0,1017.0,540.0,2.0,2.0,Congruent,90,0.2,0.5,300.0,1.0,5.0,3.0,6.0,0.33,9050,54,disc
295,RA2,1,20.0,1.0,1018.0,503.0,1.0,1.0,Congruent,90,0.5,0.7,200.0,21.0,30.0,13.0,26.0,0.62,9050,55,disc
296,RA2,1,20.0,1.0,1178.0,620.0,2.0,2.0,Congruent,90,0.4,0.5,100.0,8.0,20.0,9.0,18.0,0.89,9050,56,disc
297,RA2,1,20.0,1.0,1078.0,561.0,1.0,1.0,Congruent,90,0.5,0.6,100.0,12.0,20.0,7.0,14.0,0.58,9050,57,disc
298,RA2,1,20.0,1.0,1105.0,462.0,2.0,2.0,Congruent,90,0.5,0.8,300.0,4.0,8.0,8.0,10.0,0.5,9050,58,disc
299,RA2,1,20.0,1.0,901.0,520.0,2.0,2.0,Congruent,90,0.5,0.8,300.0,4.0,8.0,20.0,25.0,0.2,9050,59,disc
300,RA2,1,20.0,1.0,836.0,577.0,1.0,1.0,Congruent,90,0.5,0.7,200.0,21.0,30.0,8.0,16.0,0.38,9050,60,disc
301,RA2,1,20.0,0.0,1201.0,601.0,2.0,1.0,Congruent,90,0.3,0.4,100.0,9.0,30.0,10.0,25.0,0.9,9050,61,disc
302,RA2,1,20.0,1.0,1189.0,501.0,2.0,2.0,Congruent,90,0.5,0.6,100.0,2.0,4.0,18.0,30.0,0.11,9050,62,disc
303,RA2,1,20.0,1.0,1149.0,640.0,2.0,2.0,Congruent,90,0.3,0.5,200.0,3.0,10.0,9.0,18.0,0.33,9050,63,disc
304,RA2,1,20.0,1.0,1048.0,616.0,2.0,2.0,Congruent,90,0.3,0.5,200.0,3.0,10.0,9.0,18.0,0.33,9050,64,disc
305,RA2,1,20.0,1.0,1642.0,540.0,2.0,2.0,Congruent,90,0.5,0.6,100.0,3.0,6.0,6.0,10.0,0.5,9050,65,disc
306,RA2,1,20.0,1.0,1069.0,762.0,1.0,1.0,Congruent,90,0.5,0.8,300.0,16.0,20.0,7.0,14.0,0.44,9050,66,disc
307,RA2,1,20.0,1.0,1099.0,683.0,1.0,1.0,Congruent,90,0.33,0.53,200.0,8.0,15.0,3.0,9.0,0.38,9050,67,disc
308,RA2,1,20.0,1.0,1107.0,543.0,2.0,2.0,Incongruent,90,0.3,0.5,200.0,9.0,30.0,8.0,16.0,0.89,9050,68,disc
309,RA2,1,20.0,0.0,1108.0,620.0,2.0,1.0,Congruent,90,0.4,0.6,200.0,8.0,20.0,9.0,15.0,0.89,9050,69,disc
310,RA2,1,20.0,1.0,1165.0,517.0,1.0,1.0,Congruent,90,0.4,0.5,100.0,14.0,28.0,12.0,30.0,0.86,9050,70,disc
311,RA2,1,20.0,1.0,981.0,539.0,2.0,2.0,Congruent,90,0.4,0.5,100.0,8.0,20.0,9.0,18.0,0.89,9050,71,disc
312,RA2,1,20.0,1.0,1010.0,704.0,2.0,2.0,Congruent,90,0.2,0.5,300.0,3.0,15.0,11.0,22.0,0.27,9050,72,disc
313,RA2,1,20.0,1.0,1047.0,642.0,2.0,2.0,Congruent,90,0.25,0.55,300.0,6.0,24.0,11.0,20.0,0.55,9050,73,disc
314,RA2,1,20.0,1.0,1068.0,640.0,1.0,1.0,Congruent,90,0.5,0.6,100.0,15.0,25.0,3.0,6.0,0.2,9050,74,disc
315,RA2,1,20.0,1.0,1046.0,638.0,2.0,2.0,Congruent,90,0.5,0.7,200.0,4.0,8.0,21.0,30.0,0.19,9050,75,disc
316,RA2,1,20.0,1.0,1114.0,539.0,1.0,1.0,Congruent,90,0.3,0.5,200.0,4.0,8.0,3.0,10.0,0.75,9050,76,disc
317,RA2,1,20.0,1.0,1037.0,603.0,1.0,1.0,Congruent,90,0.13,0.33,200.0,7.0,21.0,4.0,30.0,0.57,9050,77,disc
318,RA2,1,20.0,1.0,1078.0,660.0,2.0,2.0,Congruent,90,0.5,0.7,200.0,8.0,16.0,21.0,30.0,0.38,9050,78,disc
319,RA2,1,20.0,0.0,1327.0,542.0,1.0,2.0,Congruent,90,0.15,0.25,100.0,6.0,24.0,3.0,20.0,0.5,9050,79,disc
320,RA2,1,20.0,1.0,920.0,620.0,2.0,2.0,Congruent,90,0.2,0.5,300.0,3.0,15.0,11.0,22.0,0.27,9050,80,disc
321,RA2,1,20.0,1.0,1004.0,582.0,1.0,1.0,Congruent,90,0.2,0.4,200.0,8.0,20.0,5.0,25.0,0.62,9050,81,disc
322,RA2,1,20.0,1.0,1032.0,481.0,2.0,2.0,Congruent,90,0.3,0.5,200.0,3.0,10.0,9.0,18.0,0.33,9050,82,disc
323,RA2,1,20.0,1.0,990.0,421.0,2.0,2.0,Congruent,90,0.5,0.8,300.0,3.0,6.0,20.0,25.0,0.15,9050,83,disc
324,RA2,1,20.0,1.0,1214.0,458.0,2.0,2.0,Congruent,90,0.4,0.5,100.0,8.0,20.0,9.0,18.0,0.89,9050,84,disc
325,RA2,1,20.0,0.0,1287.0,443.0,2.0,1.0,Congruent,90,0.7,0.8,100.0,21.0,30.0,24.0,30.0,0.88,9050,85,disc
326,RA2,1,20.0,1.0,1102.0,497.0,1.0,1.0,Congruent,90,0.17,0.47,300.0,7.0,15.0,1.0,6.0,0.14,9050,86,disc
327,RA2,1,20.0,1.0,1097.0,519.0,1.0,1.0,Congruent,90,0.5,0.8,300.0,16.0,20.0,3.0,6.0,0.19,9050,87,disc
328,RA2,1,20.0,1.0,1093.0,542.0,1.0,1.0,Congruent,90,0.5,0.6,100.0,15.0,25.0,3.0,6.0,0.2,9050,88,disc
329,RA2,1,20.0,1.0,1134.0,540.0,2.0,2.0,Congruent,90,0.3,0.5,200.0,3.0,10.0,11.0,22.0,0.27,9050,89,disc
330,RA2,1,20.0,1.0,1047.0,581.0,2.0,2.0,Congruent,90,0.33,0.53,200.0,9.0,27.0,16.0,30.0,0.56,9050,90,disc
331,RA2,1,20.0,0.0,1189.0,480.0,1.0,2.0,Incongruent,90,0.5,0.6,100.0,3.0,5.0,8.0,16.0,0.38,9050,91,disc
332,RA2,1,20.0,1.0,1074.0,480.0,2.0,2.0,Congruent,90,0.4,0.5,100.0,6.0,15.0,9.0,18.0,0.67,9050,92,disc
333,RA2,1,20.0,0.0,1403.0,504.0,1.0,2.0,Congruent,90,0.4,0.5,100.0,9.0,18.0,8.0,20.0,0.89,9050,93,disc
334,RA2,1,20.0,1.0,1267.0,483.0,2.0,2.0,Incongruent,90,0.4,0.5,100.0,2.0,5.0,1.0,2.0,0.5,9050,94,disc
335,RA2,1,20.0,1.0,1225.0,481.0,2.0,2.0,Incongruent,90,0.5,0.8,300.0,8.0,16.0,4.0,5.0,0.5,9050,95,disc
336,RA2,1,20.0,1.0,1244.0,538.0,2.0,2.0,Congruent,90,0.5,0.6,100.0,16.0,32.0,18.0,30.0,0.89,9050,96,disc
337,RA2,1,20.0,1.0,1262.0,518.0,2.0,2.0,Congruent,90,0.4,0.5,100.0,2.0,5.0,12.0,24.0,0.17,9050,97,disc
338,RA2,1,20.0,1.0,1056.0,659.0,2.0,2.0,Congruent,90,0.5,0.8,300.0,7.0,14.0,16.0,20.0,0.44,9050,98,disc
339,RA2,1,20.0,1.0,1087.0,521.0,2.0,2.0,Congruent,90,0.33,0.53,200.0,1.0,3.0,8.0,15.0,0.12,9050,99,disc
340,RA2,1,20.0,1.0,1084.0,580.0,1.0,1.0,Congruent,90,0.2,0.5,300.0,7.0,14.0,5.0,25.0,0.71,9050,100,disc
341,RA2,1,20.0,1.0,1027.0,502.0,1.0,1.0,Congruent,90,0.5,0.6,100.0,9.0,15.0,1.0,2.0,0.11,9050,101,disc
342,RA2,1,20.0,1.0,1185.0,541.0,1.0,1.0,Congruent,90,0.2,0.5,300.0,11.0,22.0,5.0,25.0,0.45,9050,102,disc
343,RA2,1,20.0,1.0,1109.0,520.0,2.0,2.0,Congruent,90,0.4,0.5,100.0,2.0,5.0,12.0,24.0,0.17,9050,103,disc
344,RA2,1,20.0,1.0,1121.0,501.0,1.0,1.0,Congruent,90,0.5,0.6,100.0,3.0,5.0,2.0,4.0,0.67,9050,104,disc
345,RA2,1,20.0,0.0,1005.0,840.0,2.0,1.0,Congruent,90,0.17,0.27,100.0,2.0,12.0,4.0,15.0,0.5,9050,105,disc
346,RA2,1,20.0,1.0,1125.0,522.0,2.0,2.0,Congruent,90,0.4,0.5,100.0,10.0,25.0,16.0,32.0,0.62,9050,106,disc
347,RA2,1,20.0,1.0,973.0,579.0,2.0,2.0,Congruent,90,0.3,0.5,200.0,3.0,10.0,14.0,28.0,0.21,9050,107,disc
348,RA2,1,20.0,1.0,987.0,619.0,1.0,1.0,Congruent,90,0.56,0.76,200.0,19.0,25.0,14.0,25.0,0.74,9050,108,disc
349,RA2,1,20.0,1.0,1090.0,558.0,1.0,1.0,Congruent,90,0.15,0.25,100.0,4.0,16.0,3.0,20.0,0.75,9050,109,disc
350,RA2,1,20.0,0.0,1213.0,457.0,2.0,1.0,Incongruent,90,0.5,0.8,300.0,13.0,26.0,4.0,5.0,0.31,9050,110,disc
351,RA2,1,20.0,1.0,984.0,500.0,2.0,2.0,Congruent,90,0.2,0.5,300.0,4.0,20.0,9.0,18.0,0.44,9050,111,disc
352,RA2,1,20.0,1.0,1128.0,540.0,2.0,2.0,Congruent,90,0.5,0.8,300.0,15.0,30.0,20.0,25.0,0.75,9050,112,disc
353,RA2,1,20.0,1.0,1068.0,597.0,2.0,2.0,Congruent,90,0.2,0.5,300.0,1.0,5.0,9.0,18.0,0.11,9050,113,disc
354,RA2,1,20.0,1.0,978.0,500.0,1.0,1.0,Congruent,90,0.4,0.5,100.0,9.0,18.0,2.0,5.0,0.22,9050,114,disc
355,RA2,1,20.0,1.0,1003.0,461.0,1.0,1.0,Congruent,90,0.5,0.7,200.0,21.0,30.0,11.0,22.0,0.52,9050,115,disc
356,RA2,1,20.0,1.0,1057.0,420.0,2.0,2.0,Congruent,90,0.2,0.5,300.0,3.0,15.0,13.0,26.0,0.23,9050,116,disc
357,RA2,1,20.0,1.0,1080.0,401.0,2.0,2.0,Congruent,90,0.33,0.53,200.0,7.0,21.0,8.0,15.0,0.88,9050,117,disc
358,RA2,1,20.0,1.0,748.0,502.0,1.0,1.0,Congruent,90,0.6,0.8,200.0,16.0,20.0,9.0,15.0,0.56,9050,118,disc
359,RA2,1,20.0,1.0,1040.0,401.0,2.0,2.0,Congruent,90,0.67,0.97,300.0,16.0,24.0,29.0,30.0,0.55,9050,119,disc
360,RA2,1,20.0,1.0,1031.0,517.0,2.0,2.0,Congruent,50,0.2,0.5,300.0,5.0,25.0,16.0,32.0,0.31,9050,120,disc
361,RA2,1,20.0,1.0,1011.0,520.0,1.0,1.0,Congruent,50,0.4,0.5,100.0,9.0,18.0,2.0,5.0,0.22,9050,121,disc
362,RA2,1,20.0,1.0,1047.0,522.0,2.0,2.0,Congruent,50,0.2,0.5,300.0,1.0,5.0,15.0,30.0,0.07,9050,122,disc
363,RA2,1,20.0,1.0,1286.0,480.0,1.0,1.0,Incongruent,50,0.4,0.5,100.0,11.0,22.0,12.0,30.0,0.92,9050,123,disc
364,RA2,1,20.0,1.0,1087.0,540.0,2.0,2.0,Incongruent,50,0.4,0.7,300.0,10.0,25.0,7.0,10.0,0.7,9050,124,disc
365,RA2,1,20.0,1.0,1047.0,519.0,2.0,2.0,Congruent,50,0.1,0.4,300.0,2.0,20.0,6.0,15.0,0.33,9050,125,disc
366,RA2,1,20.0,1.0,1023.0,602.0,1.0,1.0,Congruent,50,0.5,0.8,300.0,16.0,20.0,7.0,14.0,0.44,9050,126,disc
367,RA2,1,20.0,0.0,1066.0,580.0,2.0,1.0,Incongruent,50,0.5,0.7,200.0,13.0,26.0,7.0,10.0,0.54,9050,127,disc
368,RA2,1,20.0,1.0,1808.0,479.0,1.0,1.0,Incongruent,50,0.37,0.67,300.0,2.0,3.0,11.0,30.0,0.18,9050,128,disc
369,RA2,1,20.0,1.0,1508.0,480.0,1.0,1.0,Incongruent,50,0.5,0.7,200.0,7.0,10.0,14.0,28.0,0.5,9050,129,disc
370,RA2,1,20.0,1.0,1250.0,482.0,1.0,1.0,Congruent,50,0.2,0.5,300.0,11.0,22.0,5.0,25.0,0.45,9050,130,disc
371,RA2,1,20.0,1.0,962.0,600.0,1.0,1.0,Congruent,50,0.5,0.7,200.0,21.0,30.0,8.0,16.0,0.38,9050,131,disc
372,RA2,1,20.0,1.0,1333.0,419.0,2.0,2.0,Incongruent,50,0.5,0.8,300.0,6.0,12.0,4.0,5.0,0.67,9050,132,disc
373,RA2,1,20.0,1.0,1121.0,458.0,1.0,1.0,Incongruent,50,0.75,0.95,200.0,19.0,20.0,21.0,28.0,0.9,9050,133,disc
374,RA2,1,20.0,1.0,1037.0,541.0,1.0,1.0,Incongruent,50,0.6,0.9,300.0,9.0,10.0,15.0,25.0,0.6,9050,134,disc
375,RA2,1,20.0,1.0,1139.0,480.0,1.0,1.0,Incongruent,50,0.7,0.8,100.0,12.0,15.0,14.0,20.0,0.86,9050,135,disc
376,RA2,1,20.0,1.0,1142.0,539.0,1.0,1.0,Congruent,50,0.6,0.8,200.0,20.0,25.0,3.0,5.0,0.15,9050,136,disc
377,RA2,1,20.0,1.0,1175.0,460.0,2.0,2.0,Congruent,50,0.5,0.6,100.0,2.0,4.0,3.0,5.0,0.67,9050,137,disc
378,RA2,1,20.0,1.0,1217.0,442.0,2.0,2.0,Incongruent,50,0.5,0.8,300.0,13.0,26.0,8.0,10.0,0.62,9050,138,disc
379,RA2,1,20.0,1.0,1452.0,362.0,2.0,2.0,Congruent,50,0.5,0.8,300.0,2.0,4.0,8.0,10.0,0.25,9050,139,disc
380,RA2,1,20.0,1.0,1051.0,400.0,2.0,2.0,Congruent,50,0.4,0.5,100.0,6.0,15.0,9.0,18.0,0.67,9050,140,disc
381,RA2,1,20.0,1.0,920.0,602.0,1.0,1.0,Congruent,50,0.5,0.7,200.0,21.0,30.0,15.0,30.0,0.71,9050,141,disc
382,RA2,1,20.0,1.0,1004.0,541.0,1.0,1.0,Congruent,50,0.5,0.6,100.0,15.0,25.0,3.0,6.0,0.2,9050,142,disc
383,RA2,1,20.0,1.0,1130.0,498.0,1.0,1.0,Congruent,50,0.17,0.47,300.0,14.0,30.0,4.0,24.0,0.29,9050,143,disc
384,RA2,1,20.0,1.0,1169.0,501.0,1.0,1.0,Incongruent,50,0.5,0.7,200.0,7.0,10.0,13.0,26.0,0.54,9050,144,disc
385,RA2,1,20.0,0.0,1330.0,480.0,2.0,1.0,Incongruent,50,0.4,0.5,100.0,12.0,30.0,1.0,2.0,0.08,9050,145,disc
386,RA2,1,20.0,1.0,933.0,401.0,2.0,2.0,Incongruent,50,0.3,0.6,300.0,9.0,30.0,6.0,10.0,0.67,9050,146,disc
387,RA2,1,20.0,1.0,1247.0,460.0,1.0,1.0,Congruent,50,0.33,0.43,100.0,13.0,30.0,3.0,9.0,0.23,9050,147,disc
388,RA2,1,20.0,1.0,1071.0,560.0,1.0,1.0,Incongruent,50,0.5,0.6,100.0,6.0,10.0,7.0,14.0,0.86,9050,148,disc
389,RA2,1,20.0,1.0,1368.0,419.0,1.0,1.0,Incongruent,50,0.4,0.5,100.0,1.0,2.0,2.0,5.0,0.5,9050,149,disc
390,RA2,1,20.0,1.0,1168.0,481.0,1.0,1.0,Congruent,50,0.3,0.5,200.0,4.0,8.0,3.0,10.0,0.75,9050,150,disc
391,RA2,1,20.0,1.0,979.0,561.0,1.0,1.0,Incongruent,50,0.73,0.83,100.0,5.0,6.0,11.0,15.0,0.45,9050,151,disc
392,RA2,1,20.0,1.0,1199.0,400.0,2.0,2.0,Congruent,50,0.3,0.5,200.0,3.0,10.0,9.0,18.0,0.33,9050,152,disc
393,RA2,1,20.0,1.0,1304.0,362.0,2.0,2.0,Incongruent,50,0.6,0.8,200.0,18.0,30.0,8.0,10.0,0.44,9050,153,disc
394,RA2,1,20.0,0.0,1389.0,400.0,2.0,1.0,Incongruent,50,0.4,0.5,100.0,12.0,30.0,7.0,14.0,0.58,9050,154,disc
395,RA2,1,20.0,1.0,1238.0,521.0,1.0,1.0,Congruent,50,0.5,0.6,100.0,18.0,30.0,8.0,16.0,0.44,9050,155,disc
396,RA2,1,20.0,1.0,1404.0,418.0,1.0,1.0,Incongruent,50,0.5,0.8,300.0,4.0,5.0,5.0,10.0,0.8,9050,156,disc
397,RA2,1,20.0,1.0,1640.0,420.0,2.0,2.0,Congruent,50,0.4,0.5,100.0,2.0,5.0,7.0,14.0,0.29,9050,157,disc
398,RA2,1,20.0,0.0,1421.0,481.0,2.0,1.0,Congruent,50,0.4,0.5,100.0,4.0,10.0,8.0,16.0,0.5,9050,158,disc
399,RA2,1,20.0,1.0,1004.0,541.0,2.0,2.0,Congruent,50,0.5,0.8,300.0,3.0,6.0,20.0,25.0,0.15,9050,159,disc
400,RA2,1,20.0,1.0,1060.0,378.0,2.0,2.0,Congruent,50,0.5,0.6,100.0,11.0,22.0,18.0,30.0,0.61,9050,160,disc
401,RA2,1,20.0,1.0,1085.0,480.0,1.0,1.0,Congruent,50,0.2,0.5,300.0,7.0,14.0,3.0,15.0,0.43,9050,161,disc
402,RA2,1,20.0,0.0,1232.0,497.0,2.0,1.0,Incongruent,50,0.4,0.5,100.0,12.0,30.0,2.0,4.0,0.17,9050,162,disc
403,RA2,1,20.0,1.0,1371.0,440.0,2.0,2.0,Congruent,50,0.5,0.6,100.0,4.0,8.0,12.0,20.0,0.33,9050,163,disc
404,RA2,1,20.0,1.0,1562.0,344.0,2.0,2.0,Incongruent,50,0.4,0.5,100.0,4.0,10.0,1.0,2.0,0.25,9050,164,disc
405,RA2,1,20.0,1.0,1161.0,460.0,1.0,1.0,Congruent,50,0.2,0.5,300.0,15.0,30.0,4.0,20.0,0.27,9050,165,disc
406,RA2,1,20.0,0.0,1220.0,460.0,2.0,1.0,Congruent,50,0.3,0.5,200.0,3.0,10.0,14.0,28.0,0.21,9050,166,disc
407,RA2,1,20.0,1.0,1262.0,479.0,1.0,1.0,Congruent,50,0.15,0.25,100.0,4.0,16.0,3.0,20.0,0.75,9050,167,disc
408,RA2,1,20.0,1.0,1035.0,659.0,1.0,1.0,Congruent,50,0.5,0.8,300.0,12.0,15.0,9.0,18.0,0.75,9050,168,disc
409,RA2,1,20.0,1.0,1090.0,421.0,2.0,2.0,Incongruent,50,0.2,0.5,300.0,2.0,10.0,1.0,2.0,0.5,9050,169,disc
410,RA2,1,20.0,1.0,1014.0,542.0,1.0,1.0,Congruent,50,0.4,0.5,100.0,11.0,22.0,6.0,15.0,0.55,9050,170,disc
411,RA2,1,20.0,1.0,1078.0,400.0,2.0,2.0,Incongruent,50,0.37,0.67,300.0,11.0,30.0,2.0,3.0,0.18,9050,171,disc
412,RA2,1,20.0,0.0,1374.0,540.0,2.0,1.0,Congruent,50,0.5,0.7,200.0,5.0,10.0,21.0,30.0,0.24,9050,172,disc
413,RA2,1,20.0,1.0,1098.0,501.0,2.0,2.0,Incongruent,50,0.5,0.7,200.0,16.0,32.0,14.0,20.0,0.88,9050,173,disc
414,RA2,1,20.0,1.0,1435.0,481.0,2.0,2.0,Incongruent,50,0.6,0.8,200.0,15.0,25.0,12.0,15.0,0.8,9050,174,disc
415,RA2,1,20.0,1.0,1227.0,557.0,1.0,1.0,Congruent,50,0.5,0.8,300.0,24.0,30.0,1.0,2.0,0.04,9050,175,disc
416,RA2,1,20.0,1.0,1133.0,578.0,1.0,1.0,Incongruent,50,0.5,0.7,200.0,7.0,10.0,8.0,16.0,0.88,9050,176,disc
417,RA2,1,20.0,1.0,962.0,399.0,2.0,2.0,Congruent,50,0.2,0.5,300.0,3.0,15.0,11.0,22.0,0.27,9050,177,disc
418,RA2,1,20.0,0.0,1039.0,382.0,1.0,2.0,Incongruent,50,0.65,0.75,100.0,6.0,8.0,13.0,20.0,0.46,9050,178,disc
419,RA2,1,20.0,1.0,1063.0,379.0,2.0,2.0,Incongruent,50,0.37,0.67,300.0,11.0,30.0,2.0,3.0,0.18,9050,179,disc
420,RA2,1,20.0,1.0,1108.0,381.0,2.0,2.0,Incongruent,50,0.23,0.33,100.0,7.0,30.0,1.0,3.0,0.14,9050,180,disc
421,RA2,1,20.0,1.0,1100.0,420.0,2.0,2.0,Congruent,50,0.53,0.83,300.0,8.0,15.0,10.0,12.0,0.8,9050,181,disc
422,RA2,1,20.0,1.0,950.0,501.0,2.0,2.0,Incongruent,50,0.2,0.5,300.0,4.0,20.0,1.0,2.0,0.25,9050,182,disc
423,RA2,1,20.0,1.0,1010.0,462.0,1.0,1.0,Congruent,50,0.67,0.87,200.0,26.0,30.0,16.0,24.0,0.62,9050,183,disc
424,RA2,1,20.0,1.0,1002.0,381.0,2.0,2.0,Congruent,50,0.2,0.5,300.0,2.0,10.0,14.0,28.0,0.14,9050,184,disc
425,RA2,1,20.0,1.0,1011.0,640.0,1.0,1.0,Incongruent,50,0.5,0.8,300.0,4.0,5.0,5.0,10.0,0.8,9050,185,disc
426,RA2,1,20.0,1.0,1015.0,557.0,2.0,2.0,Congruent,50,0.2,0.5,300.0,6.0,30.0,16.0,32.0,0.38,9050,186,disc
427,RA2,1,20.0,1.0,987.0,440.0,2.0,2.0,Congruent,50,0.4,0.6,200.0,2.0,5.0,12.0,20.0,0.17,9050,187,disc
428,RA2,1,20.0,0.0,1008.0,540.0,2.0,1.0,Congruent,50,0.5,0.8,300.0,8.0,16.0,12.0,15.0,0.67,9050,188,disc
429,RA2,1,20.0,1.0,941.0,483.0,2.0,2.0,Congruent,50,0.4,0.5,100.0,4.0,10.0,8.0,16.0,0.5,9050,189,disc
430,RA2,1,20.0,1.0,1235.0,460.0,1.0,1.0,Congruent,50,0.3,0.5,200.0,11.0,22.0,9.0,30.0,0.82,9050,190,disc
431,RA2,1,20.0,1.0,1217.0,480.0,1.0,1.0,Incongruent,50,0.3,0.5,200.0,4.0,8.0,9.0,30.0,0.44,9050,191,disc
432,RA2,1,20.0,1.0,1336.0,399.0,2.0,2.0,Congruent,50,0.4,0.6,200.0,2.0,5.0,18.0,30.0,0.11,9050,192,disc
433,RA2,1,20.0,1.0,1088.0,420.0,1.0,1.0,Incongruent,50,0.5,0.8,300.0,4.0,5.0,5.0,10.0,0.8,9050,193,disc
434,RA2,1,20.0,1.0,1346.0,460.0,1.0,1.0,Congruent,50,0.15,0.25,100.0,6.0,24.0,3.0,20.0,0.5,9050,194,disc
435,RA2,1,20.0,1.0,1143.0,540.0,1.0,1.0,Congruent,50,0.33,0.53,200.0,8.0,15.0,3.0,9.0,0.38,9050,195,disc
436,RA2,1,20.0,1.0,1228.0,400.0,1.0,1.0,Incongruent,50,0.5,0.8,300.0,8.0,10.0,13.0,26.0,0.62,9050,196,disc
437,RA2,1,20.0,1.0,962.0,377.0,2.0,2.0,Incongruent,50,0.2,0.5,300.0,5.0,25.0,4.0,8.0,0.8,9050,197,disc
438,RA2,1,20.0,1.0,1001.0,360.0,2.0,2.0,Congruent,50,0.4,0.5,100.0,8.0,20.0,9.0,18.0,0.89,9050,198,disc
439,RA2,1,20.0,1.0,1040.0,440.0,2.0,2.0,Incongruent,50,0.3,0.5,200.0,9.0,30.0,1.0,2.0,0.11,9050,199,disc
440,RA2,1,20.0,0.0,1007.0,483.0,2.0,1.0,Incongruent,50,0.5,0.6,100.0,7.0,14.0,3.0,5.0,0.43,9050,200,disc
441,RA2,1,20.0,1.0,1161.0,582.0,1.0,1.0,Incongruent,50,0.23,0.33,100.0,3.0,9.0,7.0,30.0,0.43,9050,201,disc
442,RA2,1,20.0,0.0,1247.0,360.0,1.0,2.0,Incongruent,50,0.47,0.67,200.0,6.0,9.0,14.0,30.0,0.43,9050,202,disc
443,RA2,1,20.0,1.0,922.0,516.0,1.0,1.0,Congruent,50,0.5,0.8,300.0,12.0,15.0,8.0,16.0,0.67,9050,203,disc
444,RA2,1,20.0,0.0,1232.0,419.0,1.0,2.0,Incongruent,50,0.65,0.75,100.0,6.0,8.0,13.0,20.0,0.46,9050,204,disc
445,RA2,1,20.0,1.0,902.0,398.0,1.0,1.0,Congruent,50,0.5,0.7,200.0,14.0,20.0,1.0,2.0,0.07,9050,205,disc
446,RA2,1,20.0,1.0,944.0,620.0,1.0,1.0,Congruent,50,0.6,0.8,200.0,20.0,25.0,3.0,5.0,0.15,9050,206,disc
447,RA2,1,20.0,1.0,1036.0,601.0,1.0,1.0,Incongruent,50,0.67,0.87,200.0,13.0,15.0,18.0,27.0,0.72,9050,207,disc
448,RA2,1,20.0,1.0,1026.0,583.0,1.0,1.0,Incongruent,50,0.5,0.8,300.0,4.0,5.0,7.0,14.0,0.57,9050,208,disc
449,RA2,1,20.0,1.0,1211.0,542.0,1.0,1.0,Congruent,50,0.2,0.3,100.0,3.0,10.0,1.0,5.0,0.33,9050,209,disc
450,RA2,1,20.0,1.0,981.0,521.0,2.0,2.0,Congruent,50,0.4,0.5,100.0,2.0,5.0,12.0,24.0,0.17,9050,210,disc
451,RA2,1,20.0,1.0,1243.0,561.0,1.0,1.0,Congruent,50,0.13,0.33,200.0,9.0,27.0,4.0,30.0,0.44,9050,211,disc
452,RA2,1,20.0,0.0,1178.0,482.0,2.0,1.0,Incongruent,50,0.5,0.6,100.0,11.0,22.0,3.0,5.0,0.27,9050,212,disc
453,RA2,1,20.0,1.0,1201.0,420.0,2.0,2.0,Incongruent,50,0.5,0.6,100.0,13.0,26.0,3.0,5.0,0.23,9050,213,disc
454,RA2,1,20.0,1.0,1217.0,401.0,1.0,1.0,Incongruent,50,0.2,0.4,200.0,2.0,5.0,6.0,30.0,0.33,9050,214,disc
455,RA2,1,20.0,1.0,1069.0,381.0,2.0,2.0,Incongruent,50,0.6,0.8,200.0,12.0,20.0,8.0,10.0,0.67,9050,215,disc
456,RA2,1,20.0,1.0,1126.0,401.0,2.0,2.0,Incongruent,50,0.57,0.67,100.0,17.0,30.0,6.0,9.0,0.35,9050,216,disc
457,RA2,1,20.0,1.0,908.0,560.0,1.0,1.0,Congruent,50,0.5,0.6,100.0,12.0,20.0,7.0,14.0,0.58,9050,217,disc
458,RA2,1,20.0,1.0,1116.0,421.0,1.0,1.0,Congruent,50,0.5,0.6,100.0,6.0,10.0,5.0,10.0,0.83,9050,218,disc
459,RA2,1,20.0,1.0,1006.0,339.0,2.0,2.0,Congruent,50,0.3,0.5,200.0,3.0,10.0,6.0,12.0,0.5,9050,219,disc
460,RA2,1,20.0,1.0,933.0,440.0,1.0,1.0,Congruent,50,0.67,0.87,200.0,13.0,15.0,4.0,6.0,0.31,9050,220,disc
461,RA2,1,20.0,1.0,1222.0,417.0,1.0,1.0,Congruent,50,0.25,0.35,100.0,7.0,20.0,3.0,12.0,0.43,9050,221,disc
462,RA2,1,20.0,0.0,1134.0,398.0,1.0,2.0,Incongruent,50,0.5,0.8,300.0,8.0,10.0,9.0,18.0,0.89,9050,222,disc
463,RA2,1,20.0,1.0,1014.0,700.0,1.0,1.0,Congruent,50,0.3,0.5,200.0,11.0,22.0,9.0,30.0,0.82,9050,223,disc
464,RA2,1,20.0,1.0,1151.0,545.0,1.0,1.0,Incongruent,50,0.3,0.6,300.0,6.0,10.0,9.0,30.0,0.67,9050,224,disc
465,RA2,1,20.0,1.0,1084.0,460.0,2.0,2.0,Incongruent,50,0.23,0.33,100.0,7.0,30.0,4.0,12.0,0.57,9050,225,disc
466,RA2,1,20.0,1.0,1201.0,601.0,1.0,1.0,Incongruent,50,0.3,0.5,200.0,3.0,6.0,9.0,30.0,0.33,9050,226,disc
467,RA2,1,20.0,1.0,1085.0,620.0,1.0,1.0,Congruent,50,0.5,0.8,300.0,12.0,15.0,8.0,16.0,0.67,9050,227,disc
468,RA2,1,20.0,1.0,1210.0,539.0,2.0,2.0,Incongruent,50,0.2,0.4,200.0,5.0,25.0,2.0,5.0,0.4,9050,228,disc
469,RA2,1,20.0,0.0,1333.0,521.0,2.0,1.0,Incongruent,50,0.37,0.67,300.0,11.0,30.0,2.0,3.0,0.18,9050,229,disc
470,RA2,1,20.0,1.0,1231.0,500.0,1.0,1.0,Congruent,50,0.1,0.4,300.0,10.0,25.0,2.0,20.0,0.2,9050,230,disc
471,RA2,1,20.0,0.0,1191.0,381.0,1.0,2.0,Incongruent,50,0.4,0.5,100.0,8.0,16.0,10.0,25.0,0.8,9050,231,disc
472,RA2,1,20.0,1.0,1095.0,461.0,1.0,1.0,Incongruent,50,0.47,0.67,200.0,4.0,6.0,14.0,30.0,0.29,9050,232,disc
473,RA2,1,20.0,1.0,1179.0,460.0,2.0,2.0,Incongruent,50,0.47,0.67,200.0,14.0,30.0,6.0,9.0,0.43,9050,233,disc
474,RA2,1,20.0,1.0,1140.0,566.0,1.0,1.0,Incongruent,50,0.37,0.67,300.0,6.0,9.0,11.0,30.0,0.55,9050,234,disc
475,RA2,1,20.0,1.0,1140.0,580.0,2.0,2.0,Incongruent,50,0.4,0.6,200.0,10.0,25.0,9.0,15.0,0.9,9050,235,disc
476,RA2,1,20.0,1.0,1028.0,582.0,1.0,1.0,Incongruent,50,0.6,0.8,200.0,8.0,10.0,9.0,15.0,0.89,9050,236,disc
477,RA2,1,20.0,1.0,1005.0,562.0,1.0,1.0,Congruent,50,0.4,0.6,200.0,9.0,15.0,8.0,20.0,0.89,9050,237,disc
478,RA2,1,20.0,1.0,975.0,357.0,2.0,2.0,Incongruent,50,0.5,0.6,100.0,15.0,30.0,3.0,5.0,0.2,9050,238,disc
479,RA2,1,20.0,1.0,1032.0,321.0,2.0,2.0,Congruent,50,0.5,0.7,200.0,4.0,8.0,21.0,30.0,0.19,9050,239,disc
480,RA3,0,19.0,0.0,2972.0,501.0,1.0,2.0,Congruent,90,0.15,0.25,100.0,4.0,16.0,3.0,20.0,0.75,9050,0,disc
481,RA3,0,19.0,1.0,1272.0,260.0,1.0,1.0,Congruent,90,0.33,0.53,200.0,8.0,15.0,1.0,3.0,0.12,9050,1,disc
482,RA3,0,19.0,1.0,1149.0,279.0,1.0,1.0,Congruent,90,0.2,0.4,200.0,8.0,20.0,5.0,25.0,0.62,9050,2,disc
483,RA3,0,19.0,1.0,1280.0,221.0,2.0,2.0,Congruent,90,0.3,0.5,200.0,3.0,10.0,11.0,22.0,0.27,9050,3,disc
484,RA3,0,19.0,1.0,1019.0,242.0,2.0,2.0,Congruent,90,0.5,0.8,300.0,9.0,18.0,20.0,25.0,0.45,9050,4,disc
485,RA3,0,19.0,1.0,989.0,360.0,1.0,1.0,Congruent,90,0.8,0.9,100.0,9.0,10.0,8.0,10.0,0.89,9050,5,disc
486,RA3,0,19.0,1.0,1077.0,242.0,1.0,1.0,Congruent,90,0.63,0.83,200.0,20.0,24.0,19.0,30.0,0.95,9050,6,disc
487,RA3,0,19.0,1.0,810.0,280.0,1.0,1.0,Congruent,90,0.5,0.6,100.0,15.0,25.0,3.0,6.0,0.2,9050,7,disc
488,RA3,0,19.0,1.0,1118.0,300.0,1.0,1.0,Congruent,90,0.67,0.87,200.0,26.0,30.0,16.0,24.0,0.62,9050,8,disc
489,RA3,0,19.0,1.0,1052.0,320.0,1.0,1.0,Congruent,90,0.33,0.43,100.0,13.0,30.0,3.0,9.0,0.23,9050,9,disc
490,RA3,0,19.0,1.0,1278.0,301.0,2.0,2.0,Congruent,90,0.2,0.5,300.0,5.0,25.0,16.0,32.0,0.31,9050,10,disc
491,RA3,0,19.0,1.0,1187.0,401.0,1.0,1.0,Congruent,90,0.5,0.8,300.0,12.0,15.0,9.0,18.0,0.75,9050,11,disc
492,RA3,0,19.0,1.0,1031.0,321.0,1.0,1.0,Congruent,90,0.2,0.4,200.0,8.0,20.0,5.0,25.0,0.62,9050,12,disc
493,RA3,0,19.0,0.0,1395.0,259.0,2.0,1.0,Congruent,90,0.4,0.5,100.0,4.0,10.0,8.0,16.0,0.5,9050,13,disc
494,RA3,0,19.0,1.0,1006.0,180.0,2.0,2.0,Congruent,90,0.2,0.4,200.0,3.0,15.0,8.0,20.0,0.38,9050,14,disc
495,RA3,0,19.0,1.0,1066.0,300.0,2.0,2.0,Congruent,90,0.5,0.7,200.0,8.0,16.0,21.0,30.0,0.38,9050,15,disc
496,RA3,0,19.0,1.0,1218.0,220.0,2.0,2.0,Congruent,90,0.4,0.5,100.0,6.0,15.0,9.0,18.0,0.67,9050,16,disc
497,RA3,0,19.0,1.0,991.0,240.0,2.0,2.0,Congruent,90,0.67,0.97,300.0,6.0,9.0,29.0,30.0,0.21,9050,17,disc
498,RA3,0,19.0,1.0,1118.0,320.0,1.0,1.0,Congruent,90,0.2,0.5,300.0,10.0,20.0,5.0,25.0,0.5,9050,18,disc
499,RA3,0,19.0,1.0,924.0,281.0,1.0,1.0,Congruent,90,0.5,0.6,100.0,9.0,15.0,1.0,2.0,0.11,9050,19,disc
500,RA3,0,19.0,1.0,1128.0,220.0,2.0,2.0,Congruent,90,0.5,0.6,100.0,3.0,6.0,6.0,10.0,0.5,9050,20,disc
501,RA3,0,19.0,1.0,1048.0,200.0,2.0,2.0,Congruent,90,0.5,0.8,300.0,8.0,16.0,12.0,15.0,0.67,9050,21,disc
502,RA3,0,19.0,1.0,1550.0,240.0,1.0,1.0,Congruent,90,0.15,0.25,100.0,6.0,24.0,3.0,20.0,0.5,9050,22,disc
503,RA3,0,19.0,1.0,1157.0,180.0,2.0,2.0,Congruent,90,0.5,0.8,300.0,4.0,8.0,8.0,10.0,0.5,9050,23,disc
504,RA3,0,19.0,1.0,1154.0,299.0,1.0,1.0,Congruent,90,0.17,0.47,300.0,7.0,15.0,3.0,18.0,0.43,9050,24,disc
505,RA3,0,19.0,0.0,1515.0,260.0,2.0,1.0,Congruent,90,0.4,0.5,100.0,12.0,30.0,13.0,26.0,0.92,9050,25,disc
506,RA3,0,19.0,1.0,788.0,180.0,2.0,2.0,Congruent,90,0.5,0.6,100.0,6.0,12.0,15.0,25.0,0.4,9050,26,disc
507,RA3,0,19.0,1.0,929.0,162.0,2.0,2.0,Congruent,90,0.5,0.6,100.0,11.0,22.0,18.0,30.0,0.61,9050,27,disc
508,RA3,0,19.0,1.0,849.0,240.0,1.0,1.0,Congruent,90,0.5,0.6,100.0,15.0,25.0,6.0,12.0,0.4,9050,28,disc
509,RA3,0,19.0,1.0,933.0,282.0,1.0,1.0,Congruent,90,0.13,0.33,200.0,9.0,27.0,4.0,30.0,0.44,9050,29,disc
510,RA3,0,19.0,1.0,970.0,241.0,2.0,2.0,Congruent,90,0.67,0.97,300.0,2.0,3.0,29.0,30.0,0.07,9050,30,disc
511,RA3,0,19.0,1.0,1255.0,300.0,1.0,1.0,Congruent,90,0.5,0.6,100.0,3.0,5.0,2.0,4.0,0.67,9050,31,disc
512,RA3,0,19.0,1.0,1027.0,260.0,2.0,2.0,Congruent,90,0.1,0.4,300.0,2.0,20.0,6.0,15.0,0.33,9050,32,disc
513,RA3,0,19.0,1.0,1232.0,200.0,2.0,2.0,Congruent,90,0.7,0.8,100.0,21.0,30.0,24.0,30.0,0.88,9050,33,disc
514,RA3,0,19.0,0.0,1254.0,217.0,2.0,1.0,Incongruent,90,0.5,0.8,300.0,13.0,26.0,4.0,5.0,0.31,9050,34,disc
515,RA3,0,19.0,1.0,779.0,140.0,2.0,2.0,Congruent,90,0.25,0.55,300.0,6.0,24.0,11.0,20.0,0.55,9050,35,disc
516,RA3,0,19.0,1.0,984.0,223.0,1.0,1.0,Incongruent,90,0.2,0.5,300.0,1.0,2.0,2.0,10.0,0.5,9050,36,disc
517,RA3,0,19.0,1.0,892.0,140.0,2.0,2.0,Congruent,90,0.5,0.8,300.0,2.0,4.0,20.0,25.0,0.1,9050,37,disc
518,RA3,0,19.0,1.0,827.0,260.0,1.0,1.0,Congruent,90,0.5,0.8,300.0,8.0,10.0,4.0,8.0,0.5,9050,38,disc
519,RA3,0,19.0,1.0,899.0,178.0,2.0,2.0,Congruent,90,0.3,0.5,200.0,6.0,20.0,11.0,22.0,0.55,9050,39,disc
520,RA3,0,19.0,1.0,1022.0,200.0,2.0,2.0,Incongruent,90,0.4,0.5,100.0,10.0,25.0,6.0,12.0,0.6,9050,40,disc
521,RA3,0,19.0,1.0,697.0,201.0,2.0,2.0,Congruent,90,0.2,0.5,300.0,1.0,5.0,9.0,18.0,0.11,9050,41,disc
522,RA3,0,19.0,1.0,854.0,179.0,2.0,2.0,Congruent,90,0.47,0.67,200.0,7.0,15.0,12.0,18.0,0.58,9050,42,disc
523,RA3,0,19.0,1.0,997.0,280.0,1.0,1.0,Congruent,90,0.5,0.8,300.0,8.0,10.0,4.0,8.0,0.5,9050,43,disc
524,RA3,0,19.0,1.0,1001.0,260.0,1.0,1.0,Congruent,90,0.2,0.4,200.0,4.0,10.0,3.0,15.0,0.75,9050,44,disc
525,RA3,0,19.0,1.0,881.0,300.0,1.0,1.0,Congruent,90,0.4,0.6,200.0,18.0,30.0,6.0,15.0,0.33,9050,45,disc
526,RA3,0,19.0,1.0,898.0,181.0,2.0,2.0,Congruent,90,0.5,0.6,100.0,4.0,8.0,12.0,20.0,0.33,9050,46,disc
527,RA3,0,19.0,1.0,657.0,160.0,2.0,2.0,Congruent,90,0.5,0.8,300.0,3.0,6.0,8.0,10.0,0.38,9050,47,disc
528,RA3,0,19.0,1.0,597.0,160.0,2.0,2.0,Congruent,90,0.67,0.87,200.0,12.0,18.0,26.0,30.0,0.46,9050,48,disc
529,RA3,0,19.0,1.0,916.0,181.0,1.0,1.0,Congruent,90,0.33,0.63,300.0,19.0,30.0,9.0,27.0,0.47,9050,49,disc
530,RA3,0,19.0,1.0,908.0,159.0,2.0,2.0,Incongruent,90,0.6,0.8,200.0,18.0,30.0,8.0,10.0,0.44,9050,50,disc
531,RA3,0,19.0,1.0,1028.0,219.0,1.0,1.0,Congruent,90,0.4,0.5,100.0,6.0,12.0,4.0,10.0,0.67,9050,51,disc
532,RA3,0,19.0,1.0,918.0,160.0,2.0,2.0,Congruent,90,0.2,0.5,300.0,3.0,15.0,11.0,22.0,0.27,9050,52,disc
533,RA3,0,19.0,1.0,811.0,201.0,1.0,1.0,Congruent,90,0.5,0.7,200.0,21.0,30.0,4.0,8.0,0.19,9050,53,disc
534,RA3,0,19.0,1.0,1157.0,200.0,1.0,1.0,Congruent,90,0.4,0.5,100.0,9.0,18.0,2.0,5.0,0.22,9050,54,disc
535,RA3,0,19.0,1.0,958.0,240.0,1.0,1.0,Congruent,90,0.4,0.5,100.0,16.0,32.0,4.0,10.0,0.25,9050,55,disc
536,RA3,0,19.0,1.0,768.0,141.0,2.0,2.0,Congruent,90,0.5,0.7,200.0,7.0,14.0,14.0,20.0,0.5,9050,56,disc
537,RA3,0,19.0,1.0,862.0,220.0,1.0,1.0,Congruent,90,0.5,0.7,200.0,14.0,20.0,2.0,4.0,0.14,9050,57,disc
538,RA3,0,19.0,1.0,1131.0,200.0,1.0,1.0,Congruent,90,0.5,0.6,100.0,12.0,20.0,7.0,14.0,0.58,9050,58,disc
539,RA3,0,19.0,1.0,899.0,179.0,2.0,2.0,Congruent,90,0.4,0.5,100.0,4.0,10.0,8.0,16.0,0.5,9050,59,disc
540,RA3,0,19.0,1.0,1300.0,262.0,1.0,1.0,Congruent,90,0.15,0.25,100.0,6.0,24.0,3.0,20.0,0.5,9050,60,disc
541,RA3,0,19.0,1.0,906.0,220.0,1.0,1.0,Congruent,90,0.5,0.8,300.0,16.0,20.0,2.0,4.0,0.12,9050,61,disc
542,RA3,0,19.0,0.0,1131.0,221.0,1.0,2.0,Congruent,90,0.5,0.6,100.0,15.0,25.0,14.0,28.0,0.93,9050,62,disc
543,RA3,0,19.0,1.0,663.0,182.0,2.0,2.0,Congruent,90,0.3,0.5,200.0,3.0,10.0,14.0,28.0,0.21,9050,63,disc
544,RA3,0,19.0,1.0,810.0,200.0,1.0,1.0,Congruent,90,0.3,0.6,300.0,15.0,25.0,3.0,10.0,0.2,9050,64,disc
545,RA3,0,19.0,1.0,846.0,201.0,1.0,1.0,Congruent,90,0.67,0.87,200.0,13.0,15.0,4.0,6.0,0.31,9050,65,disc
546,RA3,0,19.0,1.0,869.0,280.0,1.0,1.0,Congruent,90,0.4,0.5,100.0,9.0,18.0,2.0,5.0,0.22,9050,66,disc
547,RA3,0,19.0,1.0,880.0,260.0,1.0,1.0,Congruent,90,0.5,0.7,200.0,14.0,20.0,2.0,4.0,0.14,9050,67,disc
548,RA3,0,19.0,1.0,1104.0,259.0,1.0,1.0,Congruent,90,0.2,0.3,100.0,3.0,10.0,1.0,5.0,0.33,9050,68,disc
549,RA3,0,19.0,1.0,868.0,180.0,2.0,2.0,Congruent,90,0.53,0.83,300.0,8.0,15.0,15.0,18.0,0.53,9050,69,disc
550,RA3,0,19.0,1.0,773.0,235.0,1.0,1.0,Congruent,90,0.33,0.53,200.0,16.0,30.0,1.0,3.0,0.06,9050,70,disc
551,RA3,0,19.0,1.0,896.0,280.0,1.0,1.0,Congruent,90,0.2,0.5,300.0,12.0,24.0,2.0,10.0,0.17,9050,71,disc
552,RA3,0,19.0,1.0,904.0,181.0,2.0,2.0,Congruent,90,0.4,0.5,100.0,2.0,5.0,12.0,24.0,0.17,9050,72,disc
553,RA3,0,19.0,1.0,888.0,160.0,2.0,2.0,Congruent,90,0.05,0.25,200.0,1.0,20.0,6.0,24.0,0.17,9050,73,disc
554,RA3,0,19.0,1.0,846.0,140.0,2.0,2.0,Congruent,90,0.33,0.53,200.0,9.0,27.0,16.0,30.0,0.56,9050,74,disc
555,RA3,0,19.0,1.0,821.0,220.0,1.0,1.0,Congruent,90,0.5,0.6,100.0,15.0,25.0,3.0,6.0,0.2,9050,75,disc
556,RA3,0,19.0,1.0,811.0,200.0,1.0,1.0,Congruent,90,0.4,0.6,200.0,18.0,30.0,4.0,10.0,0.22,9050,76,disc
557,RA3,0,19.0,1.0,983.0,220.0,1.0,1.0,Congruent,90,0.4,0.5,100.0,4.0,8.0,2.0,5.0,0.5,9050,77,disc
558,RA3,0,19.0,1.0,859.0,160.0,2.0,2.0,Congruent,90,0.25,0.35,100.0,2.0,8.0,7.0,20.0,0.29,9050,78,disc
559,RA3,0,19.0,1.0,1119.0,220.0,1.0,1.0,Congruent,90,0.03,0.33,300.0,4.0,12.0,1.0,30.0,0.25,9050,79,disc
560,RA3,0,19.0,1.0,1321.0,240.0,1.0,1.0,Congruent,90,0.15,0.25,100.0,6.0,24.0,3.0,20.0,0.5,9050,80,disc
561,RA3,0,19.0,1.0,904.0,260.0,1.0,1.0,Congruent,90,0.5,0.8,300.0,24.0,30.0,2.0,4.0,0.08,9050,81,disc
562,RA3,0,19.0,1.0,924.0,220.0,2.0,2.0,Congruent,90,0.17,0.27,100.0,2.0,12.0,4.0,15.0,0.5,9050,82,disc
563,RA3,0,19.0,1.0,907.0,236.0,2.0,2.0,Congruent,90,0.2,0.5,300.0,3.0,15.0,11.0,22.0,0.27,9050,83,disc
564,RA3,0,19.0,1.0,845.0,200.0,2.0,2.0,Congruent,90,0.5,0.8,300.0,1.0,2.0,16.0,20.0,0.06,9050,84,disc
565,RA3,0,19.0,1.0,828.0,301.0,1.0,1.0,Congruent,90,0.5,0.7,200.0,7.0,10.0,3.0,6.0,0.43,9050,85,disc
566,RA3,0,19.0,1.0,866.0,240.0,1.0,1.0,Congruent,90,0.4,0.6,200.0,9.0,15.0,2.0,5.0,0.22,9050,86,disc
567,RA3,0,19.0,1.0,1251.0,221.0,1.0,1.0,Congruent,90,0.15,0.25,100.0,6.0,24.0,3.0,20.0,0.5,9050,87,disc
568,RA3,0,19.0,1.0,872.0,159.0,2.0,2.0,Congruent,90,0.3,0.5,200.0,3.0,10.0,9.0,18.0,0.33,9050,88,disc
569,RA3,0,19.0,1.0,685.0,204.0,1.0,1.0,Congruent,90,0.5,0.8,300.0,24.0,30.0,1.0,2.0,0.04,9050,89,disc
570,RA3,0,19.0,1.0,1022.0,240.0,1.0,1.0,Incongruent,90,0.2,0.5,300.0,4.0,8.0,5.0,25.0,0.8,9050,90,disc
571,RA3,0,19.0,1.0,848.0,180.0,2.0,2.0,Congruent,90,0.5,0.6,100.0,13.0,26.0,15.0,25.0,0.87,9050,91,disc
572,RA3,0,19.0,1.0,889.0,221.0,2.0,2.0,Congruent,90,0.55,0.75,200.0,11.0,20.0,18.0,24.0,0.61,9050,92,disc
573,RA3,0,19.0,1.0,729.0,219.0,2.0,2.0,Congruent,90,0.5,0.6,100.0,5.0,10.0,15.0,25.0,0.33,9050,93,disc
574,RA3,0,19.0,1.0,882.0,160.0,2.0,2.0,Congruent,90,0.3,0.5,200.0,3.0,10.0,9.0,18.0,0.33,9050,94,disc
575,RA3,0,19.0,0.0,941.0,240.0,2.0,1.0,Incongruent,90,0.5,0.8,300.0,14.0,28.0,12.0,15.0,0.86,9050,95,disc
576,RA3,0,19.0,1.0,989.0,220.0,1.0,1.0,Congruent,90,0.2,0.5,300.0,6.0,12.0,2.0,10.0,0.33,9050,96,disc
577,RA3,0,19.0,0.0,551.0,160.0,1.0,2.0,Incongruent,90,0.5,0.8,300.0,4.0,5.0,13.0,26.0,0.31,9050,97,disc
578,RA3,0,19.0,1.0,809.0,141.0,2.0,2.0,Congruent,90,0.5,0.8,300.0,5.0,10.0,24.0,30.0,0.21,9050,98,disc
579,RA3,0,19.0,1.0,1166.0,241.0,1.0,1.0,Congruent,90,0.3,0.5,200.0,13.0,26.0,9.0,30.0,0.69,9050,99,disc
580,RA3,0,19.0,1.0,1134.0,222.0,1.0,1.0,Congruent,90,0.4,0.5,100.0,4.0,8.0,2.0,5.0,0.5,9050,100,disc
581,RA3,0,19.0,1.0,1089.0,243.0,1.0,1.0,Congruent,90,0.37,0.67,300.0,18.0,27.0,11.0,30.0,0.61,9050,101,disc
582,RA3,0,19.0,0.0,1479.0,140.0,1.0,2.0,Congruent,90,0.5,0.6,100.0,6.0,10.0,5.0,10.0,0.83,9050,102,disc
583,RA3,0,19.0,1.0,898.0,261.0,1.0,1.0,Congruent,90,0.5,0.8,300.0,16.0,20.0,3.0,6.0,0.19,9050,103,disc
584,RA3,0,19.0,1.0,1326.0,180.0,2.0,2.0,Congruent,90,0.3,0.5,200.0,6.0,20.0,7.0,14.0,0.86,9050,104,disc
585,RA3,0,19.0,1.0,988.0,240.0,2.0,2.0,Congruent,90,0.4,0.5,100.0,2.0,5.0,7.0,14.0,0.29,9050,105,disc
586,RA3,0,19.0,1.0,1051.0,222.0,2.0,2.0,Congruent,90,0.5,0.6,100.0,2.0,4.0,15.0,25.0,0.13,9050,106,disc
587,RA3,0,19.0,1.0,885.0,301.0,1.0,1.0,Congruent,90,0.5,0.7,200.0,14.0,20.0,11.0,22.0,0.79,9050,107,disc
588,RA3,0,19.0,1.0,755.0,320.0,1.0,1.0,Congruent,90,0.4,0.6,200.0,18.0,30.0,4.0,10.0,0.22,9050,108,disc
589,RA3,0,19.0,1.0,855.0,183.0,2.0,2.0,Congruent,90,0.5,0.8,300.0,5.0,10.0,24.0,30.0,0.21,9050,109,disc
590,RA3,0,19.0,1.0,865.0,243.0,2.0,2.0,Congruent,90,0.5,0.7,200.0,8.0,16.0,14.0,20.0,0.57,9050,110,disc
591,RA3,0,19.0,1.0,660.0,222.0,2.0,2.0,Congruent,90,0.5,0.7,200.0,4.0,8.0,21.0,30.0,0.19,9050,111,disc
592,RA3,0,19.0,1.0,735.0,280.0,1.0,1.0,Congruent,90,0.4,0.5,100.0,6.0,12.0,4.0,10.0,0.67,9050,112,disc
593,RA3,0,19.0,1.0,661.0,201.0,1.0,1.0,Congruent,90,0.67,0.87,200.0,13.0,15.0,4.0,6.0,0.31,9050,113,disc
594,RA3,0,19.0,1.0,789.0,200.0,1.0,1.0,Congruent,90,0.5,0.8,300.0,24.0,30.0,1.0,2.0,0.04,9050,114,disc
595,RA3,0,19.0,0.0,706.0,281.0,2.0,1.0,Incongruent,90,0.5,0.7,200.0,16.0,32.0,7.0,10.0,0.44,9050,115,disc
596,RA3,0,19.0,0.0,764.0,180.0,1.0,2.0,Incongruent,90,0.5,0.7,200.0,7.0,10.0,13.0,26.0,0.54,9050,116,disc
597,RA3,0,19.0,0.0,818.0,180.0,2.0,1.0,Incongruent,90,0.2,0.5,300.0,4.0,20.0,1.0,2.0,0.25,9050,117,disc
598,RA3,0,19.0,0.0,842.0,0.0,1.0,2.0,Incongruent,90,0.5,0.8,300.0,12.0,15.0,16.0,32.0,0.75,9050,118,disc
599,RA3,0,19.0,1.0,765.0,160.0,2.0,2.0,Incongruent,90,0.2,0.4,200.0,5.0,25.0,2.0,5.0,0.4,9050,119,disc
600,RA3,0,19.0,0.0,1151.0,241.0,2.0,1.0,Incongruent,50,0.5,0.6,100.0,12.0,24.0,6.0,10.0,0.5,9050,120,disc
601,RA3,0,19.0,0.0,1181.0,241.0,1.0,2.0,Incongruent,50,0.2,0.5,300.0,1.0,2.0,5.0,25.0,0.2,9050,121,disc
602,RA3,0,19.0,1.0,989.0,139.0,2.0,2.0,Incongruent,50,0.45,0.75,300.0,9.0,20.0,6.0,8.0,0.67,9050,122,disc
603,RA3,0,19.0,1.0,744.0,158.0,2.0,2.0,Congruent,50,0.3,0.5,200.0,3.0,10.0,14.0,28.0,0.21,9050,123,disc
604,RA3,0,19.0,0.0,971.0,142.0,1.0,2.0,Incongruent,50,0.4,0.5,100.0,3.0,6.0,8.0,20.0,0.38,9050,124,disc
605,RA3,0,19.0,1.0,1112.0,181.0,1.0,1.0,Congruent,50,0.17,0.47,300.0,14.0,30.0,4.0,24.0,0.29,9050,125,disc
606,RA3,0,19.0,1.0,1136.0,381.0,1.0,1.0,Congruent,50,0.5,0.6,100.0,15.0,25.0,3.0,6.0,0.2,9050,126,disc
607,RA3,0,19.0,0.0,1783.0,159.0,1.0,2.0,Congruent,50,0.3,0.5,200.0,4.0,8.0,3.0,10.0,0.75,9050,127,disc
608,RA3,0,19.0,1.0,1368.0,219.0,1.0,1.0,Congruent,50,0.1,0.3,200.0,3.0,10.0,2.0,20.0,0.67,9050,128,disc
609,RA3,0,19.0,1.0,999.0,200.0,2.0,2.0,Congruent,50,0.5,0.6,100.0,2.0,4.0,15.0,25.0,0.13,9050,129,disc
610,RA3,0,19.0,1.0,840.0,201.0,2.0,2.0,Congruent,50,0.3,0.5,200.0,3.0,10.0,14.0,28.0,0.21,9050,130,disc
611,RA3,0,19.0,1.0,1066.0,160.0,2.0,2.0,Incongruent,50,0.5,0.7,200.0,12.0,24.0,7.0,10.0,0.58,9050,131,disc
612,RA3,0,19.0,1.0,963.0,161.0,2.0,2.0,Incongruent,50,0.5,0.7,200.0,8.0,16.0,7.0,10.0,0.88,9050,132,disc
613,RA3,0,19.0,1.0,885.0,220.0,2.0,2.0,Congruent,50,0.3,0.6,300.0,3.0,10.0,15.0,25.0,0.2,9050,133,disc
614,RA3,0,19.0,1.0,945.0,301.0,1.0,1.0,Congruent,50,0.13,0.33,200.0,9.0,27.0,4.0,30.0,0.44,9050,134,disc
615,RA3,0,19.0,1.0,1002.0,240.0,2.0,2.0,Congruent,50,0.2,0.5,300.0,6.0,30.0,11.0,22.0,0.55,9050,135,disc
616,RA3,0,19.0,1.0,1119.0,222.0,2.0,2.0,Incongruent,50,0.3,0.5,200.0,9.0,30.0,4.0,8.0,0.44,9050,136,disc
617,RA3,0,19.0,1.0,1148.0,220.0,2.0,2.0,Incongruent,50,0.83,0.93,100.0,15.0,18.0,14.0,15.0,0.93,9050,137,disc
618,RA3,0,19.0,1.0,956.0,301.0,1.0,1.0,Congruent,50,0.5,0.6,100.0,15.0,25.0,6.0,12.0,0.4,9050,138,disc
619,RA3,0,19.0,1.0,1009.0,180.0,2.0,2.0,Congruent,50,0.5,0.7,200.0,6.0,12.0,7.0,10.0,0.86,9050,139,disc
620,RA3,0,19.0,0.0,928.0,200.0,1.0,2.0,Incongruent,50,0.73,0.83,100.0,10.0,12.0,22.0,30.0,0.45,9050,140,disc
621,RA3,0,19.0,1.0,896.0,180.0,2.0,2.0,Congruent,50,0.33,0.53,200.0,7.0,21.0,8.0,15.0,0.88,9050,141,disc
622,RA3,0,19.0,0.0,4020.0,161.0,1.0,2.0,Congruent,50,0.5,0.6,100.0,3.0,5.0,1.0,2.0,0.33,9050,142,disc
623,RA3,0,19.0,1.0,912.0,160.0,2.0,2.0,Incongruent,50,0.75,0.95,200.0,21.0,28.0,19.0,20.0,0.9,9050,143,disc
624,RA3,0,19.0,1.0,963.0,302.0,1.0,1.0,Incongruent,50,0.67,0.87,200.0,13.0,15.0,18.0,27.0,0.72,9050,144,disc
625,RA3,0,19.0,1.0,1045.0,221.0,1.0,1.0,Congruent,50,0.4,0.7,300.0,21.0,30.0,4.0,10.0,0.19,9050,145,disc
626,RA3,0,19.0,1.0,1207.0,240.0,1.0,1.0,Congruent,50,0.4,0.5,100.0,15.0,30.0,4.0,10.0,0.27,9050,146,disc
627,RA3,0,19.0,1.0,1158.0,200.0,2.0,2.0,Congruent,50,0.4,0.5,100.0,2.0,5.0,7.0,14.0,0.29,9050,147,disc
628,RA3,0,19.0,1.0,1017.0,399.0,2.0,2.0,Congruent,50,0.2,0.4,200.0,3.0,15.0,8.0,20.0,0.38,9050,148,disc
629,RA3,0,19.0,1.0,1131.0,200.0,2.0,2.0,Incongruent,50,0.5,0.8,300.0,9.0,18.0,4.0,5.0,0.44,9050,149,disc
630,RA3,0,19.0,0.0,1199.0,300.0,2.0,1.0,Incongruent,50,0.6,0.8,200.0,15.0,25.0,12.0,15.0,0.8,9050,150,disc
631,RA3,0,19.0,1.0,1049.0,200.0,2.0,2.0,Congruent,50,0.5,0.6,100.0,1.0,2.0,18.0,30.0,0.06,9050,151,disc
632,RA3,0,19.0,1.0,1125.0,320.0,1.0,1.0,Congruent,50,0.03,0.33,300.0,4.0,12.0,1.0,30.0,0.25,9050,152,disc
633,RA3,0,19.0,1.0,1470.0,258.0,1.0,1.0,Congruent,50,0.8,0.9,100.0,27.0,30.0,20.0,25.0,0.74,9050,153,disc
634,RA3,0,19.0,1.0,1726.0,241.0,1.0,1.0,Incongruent,50,0.2,0.5,300.0,2.0,4.0,4.0,20.0,0.5,9050,154,disc
635,RA3,0,19.0,1.0,1829.0,300.0,1.0,1.0,Congruent,50,0.5,0.6,100.0,3.0,5.0,1.0,2.0,0.33,9050,155,disc
636,RA3,0,19.0,1.0,1299.0,301.0,1.0,1.0,Incongruent,50,0.2,0.5,300.0,2.0,4.0,4.0,20.0,0.5,9050,156,disc
637,RA3,0,19.0,1.0,1398.0,220.0,2.0,2.0,Incongruent,50,0.5,0.8,300.0,7.0,14.0,4.0,5.0,0.57,9050,157,disc
638,RA3,0,19.0,1.0,1365.0,340.0,1.0,1.0,Congruent,50,0.37,0.67,300.0,18.0,27.0,11.0,30.0,0.61,9050,158,disc
639,RA3,0,19.0,1.0,1011.0,240.0,2.0,2.0,Congruent,50,0.5,0.7,200.0,7.0,14.0,14.0,20.0,0.5,9050,159,disc
640,RA3,0,19.0,1.0,1139.0,301.0,1.0,1.0,Congruent,50,0.3,0.5,200.0,4.0,8.0,3.0,10.0,0.75,9050,160,disc
641,RA3,0,19.0,1.0,1133.0,281.0,1.0,1.0,Congruent,50,0.3,0.5,200.0,6.0,12.0,3.0,10.0,0.5,9050,161,disc
642,RA3,0,19.0,0.0,1507.0,219.0,1.0,2.0,Incongruent,50,0.4,0.5,100.0,8.0,16.0,10.0,25.0,0.8,9050,162,disc
643,RA3,0,19.0,0.0,1042.0,280.0,1.0,2.0,Incongruent,50,0.5,0.6,100.0,3.0,5.0,11.0,22.0,0.27,9050,163,disc
644,RA3,0,19.0,1.0,697.0,260.0,1.0,1.0,Congruent,50,0.5,0.8,300.0,16.0,20.0,2.0,4.0,0.12,9050,164,disc
645,RA3,0,19.0,1.0,1336.0,281.0,1.0,1.0,Congruent,50,0.5,0.6,100.0,3.0,5.0,2.0,4.0,0.67,9050,165,disc
646,RA3,0,19.0,1.0,1239.0,181.0,2.0,2.0,Congruent,50,0.3,0.4,100.0,9.0,30.0,10.0,25.0,0.9,9050,166,disc
647,RA3,0,19.0,1.0,1038.0,200.0,2.0,2.0,Congruent,50,0.2,0.5,300.0,2.0,10.0,4.0,8.0,0.5,9050,167,disc
648,RA3,0,19.0,0.0,1651.0,240.0,1.0,2.0,Incongruent,50,0.4,0.5,100.0,1.0,2.0,2.0,5.0,0.5,9050,168,disc
649,RA3,0,19.0,0.0,1630.0,202.0,2.0,1.0,Incongruent,50,0.73,0.83,100.0,22.0,30.0,15.0,18.0,0.68,9050,169,disc
650,RA3,0,19.0,1.0,2189.0,260.0,1.0,1.0,Congruent,50,0.5,0.7,200.0,21.0,30.0,7.0,14.0,0.33,9050,170,disc
651,RA3,0,19.0,1.0,1195.0,200.0,1.0,1.0,Congruent,50,0.2,0.5,300.0,15.0,30.0,4.0,20.0,0.27,9050,171,disc
652,RA3,0,19.0,1.0,1392.0,220.0,1.0,1.0,Congruent,50,0.5,0.7,200.0,14.0,20.0,8.0,16.0,0.57,9050,172,disc
653,RA3,0,19.0,1.0,982.0,299.0,1.0,1.0,Congruent,50,0.5,0.7,200.0,21.0,30.0,11.0,22.0,0.52,9050,173,disc
654,RA3,0,19.0,1.0,1571.0,179.0,2.0,2.0,Incongruent,50,0.3,0.5,200.0,3.0,10.0,1.0,2.0,0.33,9050,174,disc
655,RA3,0,19.0,0.0,1453.0,421.0,2.0,1.0,Incongruent,50,0.5,0.6,100.0,7.0,14.0,3.0,5.0,0.43,9050,175,disc
656,RA3,0,19.0,1.0,1391.0,260.0,1.0,1.0,Congruent,50,0.25,0.55,300.0,11.0,20.0,3.0,12.0,0.27,9050,176,disc
657,RA3,0,19.0,1.0,1262.0,321.0,1.0,1.0,Congruent,50,0.5,0.8,300.0,12.0,15.0,9.0,18.0,0.75,9050,177,disc
658,RA3,0,19.0,1.0,1224.0,321.0,1.0,1.0,Incongruent,50,0.37,0.67,300.0,6.0,9.0,11.0,30.0,0.55,9050,178,disc
659,RA3,0,19.0,1.0,1203.0,200.0,2.0,2.0,Incongruent,50,0.4,0.6,200.0,10.0,25.0,6.0,10.0,0.6,9050,179,disc
660,RA3,0,19.0,1.0,1082.0,262.0,2.0,2.0,Incongruent,50,0.5,0.8,300.0,9.0,18.0,8.0,10.0,0.89,9050,180,disc
661,RA3,0,19.0,1.0,1195.0,319.0,2.0,2.0,Incongruent,50,0.47,0.67,200.0,14.0,30.0,2.0,3.0,0.14,9050,181,disc
662,RA3,0,19.0,1.0,1086.0,261.0,2.0,2.0,Incongruent,50,0.5,0.8,300.0,7.0,14.0,4.0,5.0,0.57,9050,182,disc
663,RA3,0,19.0,0.0,989.0,200.0,1.0,2.0,Congruent,50,0.5,0.6,100.0,15.0,25.0,14.0,28.0,0.93,9050,183,disc
664,RA3,0,19.0,1.0,939.0,319.0,1.0,1.0,Congruent,50,0.37,0.67,300.0,18.0,27.0,11.0,30.0,0.61,9050,184,disc
665,RA3,0,19.0,1.0,924.0,240.0,1.0,1.0,Congruent,50,0.5,0.8,300.0,20.0,25.0,14.0,28.0,0.7,9050,185,disc
666,RA3,0,19.0,1.0,1091.0,380.0,1.0,1.0,Congruent,50,0.3,0.5,200.0,4.0,8.0,3.0,10.0,0.75,9050,186,disc
667,RA3,0,19.0,1.0,1014.0,322.0,1.0,1.0,Congruent,50,0.5,0.7,200.0,7.0,10.0,4.0,8.0,0.57,9050,187,disc
668,RA3,0,19.0,0.0,1329.0,300.0,2.0,1.0,Congruent,50,0.5,0.6,100.0,1.0,2.0,18.0,30.0,0.06,9050,188,disc
669,RA3,0,19.0,1.0,1350.0,319.0,1.0,1.0,Incongruent,50,0.5,0.7,200.0,7.0,10.0,8.0,16.0,0.88,9050,189,disc
670,RA3,0,19.0,1.0,768.0,340.0,1.0,1.0,Congruent,50,0.5,0.7,200.0,21.0,30.0,8.0,16.0,0.38,9050,190,disc
671,RA3,0,19.0,1.0,1287.0,281.0,1.0,1.0,Congruent,50,0.2,0.5,300.0,7.0,14.0,3.0,15.0,0.43,9050,191,disc
672,RA3,0,19.0,1.0,1741.0,238.0,1.0,1.0,Incongruent,50,0.2,0.5,300.0,2.0,4.0,3.0,15.0,0.67,9050,192,disc
673,RA3,0,19.0,1.0,1391.0,201.0,2.0,2.0,Incongruent,50,0.5,0.6,100.0,9.0,18.0,3.0,5.0,0.33,9050,193,disc
674,RA3,0,19.0,1.0,866.0,260.0,1.0,1.0,Incongruent,50,0.5,0.8,300.0,8.0,10.0,13.0,26.0,0.62,9050,194,disc
675,RA3,0,19.0,1.0,992.0,222.0,2.0,2.0,Congruent,50,0.5,0.7,200.0,7.0,14.0,14.0,20.0,0.5,9050,195,disc
676,RA3,0,19.0,1.0,1009.0,283.0,2.0,2.0,Incongruent,50,0.83,0.93,100.0,15.0,18.0,14.0,15.0,0.93,9050,196,disc
677,RA3,0,19.0,1.0,1064.0,298.0,2.0,2.0,Incongruent,50,0.5,0.8,300.0,13.0,26.0,4.0,5.0,0.31,9050,197,disc
678,RA3,0,19.0,1.0,1106.0,281.0,2.0,2.0,Incongruent,50,0.3,0.5,200.0,9.0,30.0,1.0,2.0,0.11,9050,198,disc
679,RA3,0,19.0,1.0,1419.0,260.0,1.0,1.0,Congruent,50,0.2,0.5,300.0,11.0,22.0,2.0,10.0,0.18,9050,199,disc
680,RA3,0,19.0,1.0,893.0,200.0,2.0,2.0,Incongruent,50,0.4,0.5,100.0,8.0,20.0,2.0,4.0,0.25,9050,200,disc
681,RA3,0,19.0,1.0,981.0,240.0,2.0,2.0,Incongruent,50,0.6,0.8,200.0,15.0,25.0,12.0,15.0,0.8,9050,201,disc
682,RA3,0,19.0,1.0,1140.0,282.0,1.0,1.0,Incongruent,50,0.5,0.8,300.0,4.0,5.0,11.0,22.0,0.36,9050,202,disc
683,RA3,0,19.0,1.0,1048.0,200.0,2.0,2.0,Incongruent,50,0.5,0.6,100.0,14.0,28.0,3.0,5.0,0.21,9050,203,disc
684,RA3,0,19.0,1.0,1011.0,320.0,1.0,1.0,Congruent,50,0.7,0.8,100.0,8.0,10.0,7.0,10.0,0.88,9050,204,disc
685,RA3,0,19.0,1.0,1059.0,200.0,2.0,2.0,Congruent,50,0.33,0.43,100.0,8.0,24.0,13.0,30.0,0.62,9050,205,disc
686,RA3,0,19.0,1.0,830.0,241.0,2.0,2.0,Congruent,50,0.4,0.5,100.0,4.0,10.0,8.0,16.0,0.5,9050,206,disc
687,RA3,0,19.0,0.0,868.0,240.0,1.0,2.0,Incongruent,50,0.5,0.6,100.0,6.0,10.0,13.0,26.0,0.46,9050,207,disc
688,RA3,0,19.0,1.0,887.0,200.0,2.0,2.0,Incongruent,50,0.5,0.7,200.0,16.0,32.0,7.0,10.0,0.44,9050,208,disc
689,RA3,0,19.0,1.0,951.0,200.0,2.0,2.0,Incongruent,50,0.4,0.5,100.0,10.0,25.0,9.0,18.0,0.9,9050,209,disc
690,RA3,0,19.0,1.0,1049.0,223.0,2.0,2.0,Incongruent,50,0.4,0.7,300.0,10.0,25.0,7.0,10.0,0.7,9050,210,disc
691,RA3,0,19.0,1.0,1090.0,318.0,1.0,1.0,Incongruent,50,0.4,0.5,100.0,2.0,4.0,10.0,25.0,0.2,9050,211,disc
692,RA3,0,19.0,0.0,1197.0,181.0,1.0,2.0,Incongruent,50,0.5,0.6,100.0,3.0,5.0,14.0,28.0,0.21,9050,212,disc
693,RA3,0,19.0,1.0,989.0,220.0,2.0,2.0,Incongruent,50,0.5,0.6,100.0,11.0,22.0,9.0,15.0,0.82,9050,213,disc
694,RA3,0,19.0,1.0,962.0,361.0,1.0,1.0,Incongruent,50,0.63,0.83,200.0,10.0,12.0,19.0,30.0,0.53,9050,214,disc
695,RA3,0,19.0,0.0,1822.0,221.0,1.0,2.0,Incongruent,50,0.55,0.75,200.0,9.0,12.0,11.0,20.0,0.82,9050,215,disc
696,RA3,0,19.0,0.0,1017.0,242.0,1.0,2.0,Congruent,50,0.5,0.8,300.0,8.0,10.0,2.0,4.0,0.25,9050,216,disc
697,RA3,0,19.0,1.0,950.0,200.0,2.0,2.0,Congruent,50,0.4,0.5,100.0,8.0,20.0,9.0,18.0,0.89,9050,217,disc
698,RA3,0,19.0,1.0,925.0,280.0,1.0,1.0,Congruent,50,0.5,0.8,300.0,24.0,30.0,5.0,10.0,0.21,9050,218,disc
699,RA3,0,19.0,1.0,1128.0,343.0,1.0,1.0,Congruent,50,0.3,0.5,200.0,6.0,12.0,3.0,10.0,0.5,9050,219,disc
700,RA3,0,19.0,1.0,1382.0,340.0,1.0,1.0,Incongruent,50,0.3,0.5,200.0,1.0,2.0,9.0,30.0,0.11,9050,220,disc
701,RA3,0,19.0,1.0,1822.0,240.0,2.0,2.0,Congruent,50,0.4,0.5,100.0,2.0,5.0,7.0,14.0,0.29,9050,221,disc
702,RA3,0,19.0,1.0,1185.0,340.0,1.0,1.0,Incongruent,50,0.5,0.7,200.0,7.0,10.0,14.0,28.0,0.5,9050,222,disc
703,RA3,0,19.0,0.0,1861.0,240.0,2.0,1.0,Congruent,50,0.5,0.6,100.0,16.0,32.0,18.0,30.0,0.89,9050,223,disc
704,RA3,0,19.0,1.0,940.0,180.0,2.0,2.0,Incongruent,50,0.5,0.8,300.0,12.0,24.0,4.0,5.0,0.33,9050,224,disc
705,RA3,0,19.0,1.0,831.0,263.0,1.0,1.0,Congruent,50,0.5,0.8,300.0,24.0,30.0,5.0,10.0,0.21,9050,225,disc
706,RA3,0,19.0,1.0,1185.0,260.0,1.0,1.0,Congruent,50,0.5,0.8,300.0,20.0,25.0,14.0,28.0,0.7,9050,226,disc
707,RA3,0,19.0,0.0,1218.0,302.0,1.0,2.0,Incongruent,50,0.5,0.6,100.0,3.0,5.0,10.0,20.0,0.3,9050,227,disc
708,RA3,0,19.0,1.0,908.0,160.0,2.0,2.0,Congruent,50,0.13,0.33,200.0,4.0,30.0,8.0,24.0,0.5,9050,228,disc
709,RA3,0,19.0,1.0,767.0,263.0,1.0,1.0,Incongruent,50,0.5,0.8,300.0,8.0,10.0,11.0,22.0,0.73,9050,229,disc
710,RA3,0,19.0,1.0,940.0,378.0,1.0,1.0,Congruent,50,0.2,0.5,300.0,12.0,24.0,2.0,10.0,0.17,9050,230,disc
711,RA3,0,19.0,1.0,951.0,221.0,2.0,2.0,Incongruent,50,0.3,0.6,300.0,6.0,20.0,3.0,5.0,0.5,9050,231,disc
712,RA3,0,19.0,0.0,678.0,240.0,1.0,2.0,Incongruent,50,0.55,0.75,200.0,9.0,12.0,11.0,20.0,0.82,9050,232,disc
713,RA3,0,19.0,1.0,990.0,279.0,1.0,1.0,Incongruent,50,0.5,0.8,300.0,8.0,10.0,11.0,22.0,0.73,9050,233,disc
714,RA3,0,19.0,1.0,923.0,160.0,2.0,2.0,Incongruent,50,0.5,0.7,200.0,16.0,32.0,7.0,10.0,0.44,9050,234,disc
715,RA3,0,19.0,1.0,882.0,200.0,2.0,2.0,Incongruent,50,0.5,0.8,300.0,6.0,12.0,4.0,5.0,0.67,9050,235,disc
716,RA3,0,19.0,1.0,1365.0,221.0,1.0,1.0,Incongruent,50,0.1,0.2,100.0,2.0,10.0,3.0,30.0,0.67,9050,236,disc
717,RA3,0,19.0,0.0,1078.0,199.0,1.0,2.0,Congruent,50,0.4,0.5,100.0,9.0,18.0,8.0,20.0,0.89,9050,237,disc
718,RA3,0,19.0,1.0,898.0,199.0,2.0,2.0,Incongruent,50,0.5,0.8,300.0,7.0,14.0,4.0,5.0,0.57,9050,238,disc
719,RA3,0,19.0,1.0,1106.0,320.0,1.0,1.0,Incongruent,50,0.5,0.7,200.0,7.0,10.0,13.0,26.0,0.54,9050,239,disc
720,RA4,0,20.0,0.0,1015.0,203.0,1.0,2.0,Congruent,90,0.2,0.5,300.0,7.0,14.0,5.0,25.0,0.71,9050,0,disc
721,RA4,0,20.0,0.0,1061.0,281.0,2.0,1.0,Congruent,90,0.4,0.5,100.0,4.0,10.0,8.0,16.0,0.5,9050,1,disc
722,RA4,0,20.0,1.0,713.0,760.0,2.0,2.0,Congruent,90,0.67,0.87,200.0,6.0,9.0,13.0,15.0,0.46,9050,2,disc
723,RA4,0,20.0,1.0,788.0,382.0,1.0,1.0,Congruent,90,0.33,0.63,300.0,19.0,30.0,3.0,9.0,0.16,9050,3,disc
724,RA4,0,20.0,1.0,912.0,421.0,1.0,1.0,Congruent,90,0.3,0.5,200.0,12.0,24.0,3.0,10.0,0.25,9050,4,disc
725,RA4,0,20.0,1.0,803.0,400.0,1.0,1.0,Congruent,90,0.5,0.7,200.0,21.0,30.0,15.0,30.0,0.71,9050,5,disc
726,RA4,0,20.0,1.0,736.0,360.0,2.0,2.0,Congruent,90,0.33,0.63,300.0,9.0,27.0,19.0,30.0,0.47,9050,6,disc
727,RA4,0,20.0,1.0,847.0,300.0,2.0,2.0,Congruent,90,0.2,0.5,300.0,1.0,5.0,9.0,18.0,0.11,9050,7,disc
728,RA4,0,20.0,1.0,997.0,281.0,1.0,1.0,Congruent,90,0.5,0.7,200.0,14.0,20.0,11.0,22.0,0.79,9050,8,disc
729,RA4,0,20.0,1.0,748.0,401.0,2.0,2.0,Congruent,90,0.2,0.4,200.0,5.0,25.0,6.0,15.0,0.83,9050,9,disc
730,RA4,0,20.0,1.0,1075.0,380.0,1.0,1.0,Congruent,90,0.67,0.87,200.0,26.0,30.0,18.0,27.0,0.69,9050,10,disc
731,RA4,0,20.0,1.0,968.0,541.0,1.0,1.0,Congruent,90,0.2,0.5,300.0,7.0,14.0,5.0,25.0,0.71,9050,11,disc
732,RA4,0,20.0,1.0,911.0,241.0,2.0,2.0,Congruent,90,0.5,0.6,100.0,5.0,10.0,15.0,25.0,0.33,9050,12,disc
733,RA4,0,20.0,0.0,1171.0,719.0,1.0,2.0,Congruent,90,0.5,0.8,300.0,16.0,20.0,3.0,6.0,0.19,9050,13,disc
734,RA4,0,20.0,1.0,893.0,500.0,2.0,2.0,Incongruent,90,0.3,0.5,200.0,9.0,30.0,1.0,2.0,0.11,9050,14,disc
735,RA4,0,20.0,1.0,938.0,620.0,1.0,1.0,Congruent,90,0.2,0.5,300.0,12.0,24.0,2.0,10.0,0.17,9050,15,disc
736,RA4,0,20.0,1.0,977.0,622.0,2.0,2.0,Congruent,90,0.2,0.5,300.0,6.0,30.0,16.0,32.0,0.38,9050,16,disc
737,RA4,0,20.0,1.0,1171.0,440.0,1.0,1.0,Congruent,90,0.33,0.63,300.0,19.0,30.0,9.0,27.0,0.47,9050,17,disc
738,RA4,0,20.0,1.0,1106.0,401.0,1.0,1.0,Incongruent,90,0.2,0.5,300.0,2.0,4.0,4.0,20.0,0.5,9050,18,disc
739,RA4,0,20.0,1.0,1106.0,581.0,2.0,2.0,Congruent,90,0.5,0.6,100.0,3.0,6.0,6.0,10.0,0.5,9050,19,disc
740,RA4,0,20.0,1.0,1127.0,400.0,1.0,1.0,Congruent,90,0.3,0.5,200.0,4.0,8.0,3.0,10.0,0.75,9050,20,disc
741,RA4,0,20.0,1.0,1018.0,219.0,1.0,1.0,Congruent,90,0.3,0.5,200.0,11.0,22.0,9.0,30.0,0.82,9050,21,disc
742,RA4,0,20.0,1.0,1331.0,619.0,1.0,1.0,Congruent,90,0.3,0.5,200.0,9.0,18.0,6.0,20.0,0.67,9050,22,disc
743,RA4,0,20.0,0.0,3163.0,401.0,2.0,1.0,Congruent,90,0.4,0.6,200.0,2.0,5.0,18.0,30.0,0.11,9050,23,disc
744,RA4,0,20.0,1.0,1078.0,402.0,1.0,1.0,Congruent,90,0.2,0.5,300.0,14.0,28.0,6.0,30.0,0.43,9050,24,disc
745,RA4,0,20.0,1.0,968.0,401.0,1.0,1.0,Congruent,90,0.4,0.5,100.0,6.0,12.0,4.0,10.0,0.67,9050,25,disc
746,RA4,0,20.0,1.0,887.0,360.0,2.0,2.0,Congruent,90,0.5,0.7,200.0,7.0,14.0,14.0,20.0,0.5,9050,26,disc
747,RA4,0,20.0,1.0,837.0,402.0,2.0,2.0,Congruent,90,0.2,0.5,300.0,4.0,20.0,9.0,18.0,0.44,9050,27,disc
748,RA4,0,20.0,1.0,1067.0,460.0,1.0,1.0,Incongruent,90,0.4,0.5,100.0,11.0,22.0,12.0,30.0,0.92,9050,28,disc
749,RA4,0,20.0,1.0,1098.0,479.0,1.0,1.0,Congruent,90,0.5,0.8,300.0,12.0,15.0,9.0,18.0,0.75,9050,29,disc
750,RA4,0,20.0,1.0,1068.0,400.0,2.0,2.0,Congruent,90,0.7,0.9,200.0,7.0,10.0,9.0,10.0,0.78,9050,30,disc
751,RA4,0,20.0,1.0,857.0,480.0,2.0,2.0,Congruent,90,0.3,0.5,200.0,3.0,10.0,14.0,28.0,0.21,9050,31,disc
752,RA4,0,20.0,1.0,890.0,320.0,2.0,2.0,Congruent,90,0.33,0.43,100.0,8.0,24.0,13.0,30.0,0.62,9050,32,disc
753,RA4,0,20.0,1.0,868.0,240.0,2.0,2.0,Congruent,90,0.5,0.6,100.0,4.0,8.0,12.0,20.0,0.33,9050,33,disc
754,RA4,0,20.0,1.0,977.0,339.0,2.0,2.0,Incongruent,90,0.7,0.8,100.0,14.0,20.0,4.0,5.0,0.29,9050,34,disc
755,RA4,0,20.0,1.0,702.0,382.0,2.0,2.0,Congruent,90,0.03,0.33,300.0,1.0,30.0,4.0,12.0,0.25,9050,35,disc
756,RA4,0,20.0,0.0,1413.0,420.0,2.0,1.0,Congruent,90,0.4,0.6,200.0,2.0,5.0,12.0,20.0,0.17,9050,36,disc
757,RA4,0,20.0,0.0,737.0,1198.0,1.0,2.0,Congruent,90,0.5,0.8,300.0,16.0,20.0,1.0,2.0,0.06,9050,37,disc
758,RA4,0,20.0,1.0,967.0,821.0,1.0,1.0,Incongruent,90,0.23,0.33,100.0,2.0,6.0,7.0,30.0,0.29,9050,38,disc
759,RA4,0,20.0,1.0,1053.0,260.0,1.0,1.0,Congruent,90,0.33,0.53,200.0,8.0,15.0,1.0,3.0,0.12,9050,39,disc
760,RA4,0,20.0,1.0,1243.0,280.0,1.0,1.0,Congruent,90,0.5,0.6,100.0,6.0,10.0,5.0,10.0,0.83,9050,40,disc
761,RA4,0,20.0,1.0,918.0,302.0,2.0,2.0,Congruent,90,0.2,0.5,300.0,2.0,10.0,4.0,8.0,0.5,9050,41,disc
762,RA4,0,20.0,0.0,1187.0,220.0,1.0,2.0,Congruent,90,0.4,0.5,100.0,11.0,22.0,6.0,15.0,0.55,9050,42,disc
763,RA4,0,20.0,1.0,682.0,341.0,2.0,2.0,Congruent,90,0.67,0.97,300.0,6.0,9.0,29.0,30.0,0.21,9050,43,disc
764,RA4,0,20.0,1.0,957.0,222.0,2.0,2.0,Congruent,90,0.5,0.6,100.0,12.0,24.0,15.0,25.0,0.8,9050,44,disc
765,RA4,0,20.0,1.0,921.0,240.0,2.0,2.0,Congruent,90,0.4,0.5,100.0,6.0,15.0,9.0,18.0,0.67,9050,45,disc
766,RA4,0,20.0,0.0,1124.0,360.0,1.0,2.0,Congruent,90,0.5,0.6,100.0,15.0,25.0,3.0,6.0,0.2,9050,46,disc
767,RA4,0,20.0,1.0,680.0,421.0,2.0,2.0,Congruent,90,0.2,0.5,300.0,3.0,15.0,11.0,22.0,0.27,9050,47,disc
768,RA4,0,20.0,1.0,648.0,322.0,1.0,1.0,Congruent,90,0.5,0.6,100.0,15.0,25.0,10.0,20.0,0.67,9050,48,disc
769,RA4,0,20.0,0.0,1116.0,201.0,2.0,1.0,Incongruent,90,0.5,0.6,100.0,13.0,26.0,3.0,5.0,0.23,9050,49,disc
770,RA4,0,20.0,1.0,923.0,400.0,2.0,2.0,Congruent,90,0.5,0.7,200.0,4.0,8.0,7.0,10.0,0.57,9050,50,disc
771,RA4,0,20.0,1.0,990.0,442.0,1.0,1.0,Congruent,90,0.5,0.8,300.0,16.0,20.0,11.0,22.0,0.69,9050,51,disc
772,RA4,0,20.0,1.0,847.0,601.0,2.0,2.0,Congruent,90,0.5,0.7,200.0,3.0,6.0,14.0,20.0,0.21,9050,52,disc
773,RA4,0,20.0,1.0,963.0,800.0,2.0,2.0,Congruent,90,0.2,0.5,300.0,3.0,15.0,14.0,28.0,0.21,9050,53,disc
774,RA4,0,20.0,1.0,869.0,400.0,2.0,2.0,Congruent,90,0.5,0.6,100.0,6.0,12.0,15.0,25.0,0.4,9050,54,disc
775,RA4,0,20.0,1.0,963.0,360.0,1.0,1.0,Congruent,90,0.2,0.4,200.0,8.0,20.0,5.0,25.0,0.62,9050,55,disc
776,RA4,0,20.0,0.0,1119.0,400.0,1.0,2.0,Congruent,90,0.5,0.6,100.0,3.0,5.0,1.0,2.0,0.33,9050,56,disc
777,RA4,0,20.0,1.0,988.0,401.0,1.0,1.0,Congruent,90,0.2,0.5,300.0,6.0,12.0,2.0,10.0,0.33,9050,57,disc
778,RA4,0,20.0,1.0,998.0,402.0,2.0,2.0,Congruent,90,0.5,0.7,200.0,3.0,6.0,14.0,20.0,0.21,9050,58,disc
779,RA4,0,20.0,1.0,953.0,400.0,2.0,2.0,Congruent,90,0.3,0.5,200.0,3.0,10.0,6.0,12.0,0.5,9050,59,disc
780,RA4,0,20.0,1.0,836.0,380.0,2.0,2.0,Congruent,90,0.3,0.4,100.0,6.0,20.0,12.0,30.0,0.5,9050,60,disc
781,RA4,0,20.0,1.0,845.0,501.0,1.0,1.0,Congruent,90,0.5,0.8,300.0,20.0,25.0,11.0,22.0,0.55,9050,61,disc
782,RA4,0,20.0,0.0,1694.0,400.0,2.0,1.0,Incongruent,90,0.3,0.5,200.0,6.0,20.0,3.0,6.0,0.5,9050,62,disc
783,RA4,0,20.0,0.0,1000.0,601.0,1.0,2.0,Congruent,90,0.4,0.5,100.0,15.0,30.0,4.0,10.0,0.27,9050,63,disc
784,RA4,0,20.0,1.0,902.0,317.0,2.0,2.0,Incongruent,90,0.4,0.5,100.0,8.0,20.0,7.0,14.0,0.88,9050,64,disc
785,RA4,0,20.0,1.0,697.0,340.0,2.0,2.0,Congruent,90,0.5,0.7,200.0,7.0,14.0,14.0,20.0,0.5,9050,65,disc
786,RA4,0,20.0,1.0,824.0,322.0,1.0,1.0,Congruent,90,0.5,0.8,300.0,12.0,15.0,8.0,16.0,0.67,9050,66,disc
787,RA4,0,20.0,0.0,793.0,401.0,1.0,2.0,Incongruent,90,0.5,0.7,200.0,7.0,10.0,11.0,22.0,0.64,9050,67,disc
788,RA4,0,20.0,0.0,1070.0,641.0,1.0,2.0,Congruent,90,0.5,0.6,100.0,3.0,5.0,1.0,2.0,0.33,9050,68,disc
789,RA4,0,20.0,1.0,677.0,275.0,2.0,2.0,Congruent,90,0.5,0.7,200.0,5.0,10.0,21.0,30.0,0.24,9050,69,disc
790,RA4,0,20.0,1.0,742.0,441.0,1.0,1.0,Congruent,90,0.5,0.6,100.0,9.0,15.0,1.0,2.0,0.11,9050,70,disc
791,RA4,0,20.0,1.0,1202.0,1201.0,2.0,2.0,Incongruent,90,0.3,0.5,200.0,9.0,30.0,1.0,2.0,0.11,9050,71,disc
792,RA4,0,20.0,0.0,1229.0,339.0,1.0,2.0,Congruent,90,0.3,0.5,200.0,11.0,22.0,9.0,30.0,0.82,9050,72,disc
793,RA4,0,20.0,1.0,1266.0,622.0,1.0,1.0,Congruent,90,0.5,0.8,300.0,12.0,15.0,8.0,16.0,0.67,9050,73,disc
794,RA4,0,20.0,1.0,719.0,280.0,2.0,2.0,Congruent,90,0.5,0.8,300.0,3.0,6.0,8.0,10.0,0.38,9050,74,disc
795,RA4,0,20.0,1.0,996.0,220.0,2.0,2.0,Congruent,90,0.4,0.5,100.0,4.0,10.0,8.0,16.0,0.5,9050,75,disc
796,RA4,0,20.0,1.0,742.0,359.0,1.0,1.0,Congruent,90,0.5,0.8,300.0,16.0,20.0,7.0,14.0,0.44,9050,76,disc
797,RA4,0,20.0,1.0,995.0,1202.0,1.0,1.0,Congruent,90,0.5,0.7,200.0,14.0,20.0,2.0,4.0,0.14,9050,77,disc
798,RA4,0,20.0,1.0,1173.0,200.0,1.0,1.0,Congruent,90,0.1,0.3,200.0,3.0,10.0,1.0,10.0,0.33,9050,78,disc
799,RA4,0,20.0,1.0,669.0,381.0,2.0,2.0,Congruent,90,0.5,0.6,100.0,8.0,16.0,15.0,25.0,0.53,9050,79,disc
800,RA4,0,20.0,0.0,821.0,260.0,1.0,2.0,Incongruent,90,0.63,0.83,200.0,10.0,12.0,19.0,30.0,0.53,9050,80,disc
801,RA4,0,20.0,1.0,1147.0,601.0,1.0,1.0,Congruent,90,0.17,0.47,300.0,7.0,15.0,3.0,18.0,0.43,9050,81,disc
802,RA4,0,20.0,0.0,667.0,240.0,1.0,2.0,Congruent,90,0.33,0.43,100.0,13.0,30.0,4.0,12.0,0.31,9050,82,disc
803,RA4,0,20.0,1.0,661.0,363.0,2.0,2.0,Congruent,90,0.5,0.8,300.0,8.0,16.0,12.0,15.0,0.67,9050,83,disc
804,RA4,0,20.0,1.0,829.0,298.0,2.0,2.0,Congruent,90,0.7,0.9,200.0,7.0,10.0,9.0,10.0,0.78,9050,84,disc
805,RA4,0,20.0,1.0,711.0,441.0,1.0,1.0,Congruent,90,0.5,0.7,200.0,7.0,10.0,4.0,8.0,0.57,9050,85,disc
806,RA4,0,20.0,1.0,820.0,400.0,2.0,2.0,Congruent,90,0.13,0.33,200.0,4.0,30.0,8.0,24.0,0.5,9050,86,disc
807,RA4,0,20.0,1.0,979.0,420.0,1.0,1.0,Congruent,90,0.4,0.5,100.0,11.0,22.0,6.0,15.0,0.55,9050,87,disc
808,RA4,0,20.0,1.0,1180.0,401.0,1.0,1.0,Congruent,90,0.15,0.25,100.0,4.0,16.0,3.0,20.0,0.75,9050,88,disc
809,RA4,0,20.0,0.0,897.0,400.0,1.0,2.0,Congruent,90,0.4,0.5,100.0,14.0,28.0,12.0,30.0,0.86,9050,89,disc
810,RA4,0,20.0,1.0,673.0,300.0,1.0,1.0,Congruent,90,0.17,0.47,300.0,7.0,15.0,2.0,12.0,0.29,9050,90,disc
811,RA4,0,20.0,1.0,816.0,860.0,1.0,1.0,Congruent,90,0.33,0.43,100.0,13.0,30.0,3.0,9.0,0.23,9050,91,disc
812,RA4,0,20.0,1.0,1248.0,400.0,1.0,1.0,Incongruent,90,0.2,0.5,300.0,1.0,2.0,5.0,25.0,0.2,9050,92,disc
813,RA4,0,20.0,1.0,1275.0,400.0,1.0,1.0,Congruent,90,0.2,0.5,300.0,11.0,22.0,5.0,25.0,0.45,9050,93,disc
814,RA4,0,20.0,0.0,902.0,303.0,1.0,2.0,Congruent,90,0.5,0.6,100.0,9.0,15.0,1.0,2.0,0.11,9050,94,disc
815,RA4,0,20.0,0.0,1513.0,300.0,2.0,1.0,Congruent,90,0.5,0.8,300.0,4.0,8.0,20.0,25.0,0.2,9050,95,disc
816,RA4,0,20.0,0.0,1211.0,401.0,1.0,2.0,Congruent,90,0.8,0.9,100.0,9.0,10.0,8.0,10.0,0.89,9050,96,disc
817,RA4,0,20.0,1.0,1150.0,361.0,1.0,1.0,Congruent,90,0.5,0.6,100.0,18.0,30.0,8.0,16.0,0.44,9050,97,disc
818,RA4,0,20.0,1.0,801.0,401.0,2.0,2.0,Congruent,90,0.5,0.6,100.0,16.0,32.0,18.0,30.0,0.89,9050,98,disc
819,RA4,0,20.0,1.0,883.0,662.0,1.0,1.0,Congruent,90,0.1,0.4,300.0,4.0,10.0,3.0,30.0,0.75,9050,99,disc
820,RA4,0,20.0,1.0,926.0,601.0,2.0,2.0,Congruent,90,0.2,0.5,300.0,5.0,25.0,12.0,24.0,0.42,9050,100,disc
821,RA4,0,20.0,1.0,873.0,360.0,2.0,2.0,Congruent,90,0.4,0.6,200.0,8.0,20.0,9.0,15.0,0.89,9050,101,disc
822,RA4,0,20.0,1.0,811.0,281.0,2.0,2.0,Congruent,90,0.2,0.5,300.0,3.0,15.0,11.0,22.0,0.27,9050,102,disc
823,RA4,0,20.0,0.0,768.0,501.0,2.0,1.0,Congruent,90,0.55,0.75,200.0,11.0,20.0,12.0,16.0,0.92,9050,103,disc
824,RA4,0,20.0,1.0,766.0,301.0,2.0,2.0,Congruent,90,0.33,0.63,300.0,9.0,27.0,19.0,30.0,0.47,9050,104,disc
825,RA4,0,20.0,0.0,1707.0,681.0,2.0,1.0,Congruent,90,0.4,0.5,100.0,2.0,5.0,14.0,28.0,0.14,9050,105,disc
826,RA4,0,20.0,1.0,747.0,600.0,2.0,2.0,Congruent,90,0.17,0.27,100.0,2.0,12.0,4.0,15.0,0.5,9050,106,disc
827,RA4,0,20.0,1.0,860.0,259.0,2.0,2.0,Congruent,90,0.3,0.5,200.0,3.0,10.0,9.0,18.0,0.33,9050,107,disc
828,RA4,0,20.0,1.0,1087.0,437.0,2.0,2.0,Congruent,90,0.5,0.6,100.0,10.0,20.0,12.0,20.0,0.83,9050,108,disc
829,RA4,0,20.0,1.0,999.0,322.0,2.0,2.0,Congruent,90,0.55,0.75,200.0,11.0,20.0,12.0,16.0,0.92,9050,109,disc
830,RA4,0,20.0,1.0,1216.0,322.0,1.0,1.0,Congruent,90,0.2,0.5,300.0,16.0,32.0,1.0,5.0,0.06,9050,110,disc
831,RA4,0,20.0,0.0,749.0,380.0,1.0,2.0,Congruent,90,0.33,0.43,100.0,13.0,30.0,6.0,18.0,0.46,9050,111,disc
832,RA4,0,20.0,0.0,1023.0,760.0,2.0,1.0,Congruent,90,0.5,0.6,100.0,2.0,4.0,15.0,25.0,0.13,9050,112,disc
833,RA4,0,20.0,1.0,918.0,400.0,1.0,1.0,Congruent,90,0.3,0.5,200.0,4.0,8.0,3.0,10.0,0.75,9050,113,disc
834,RA4,0,20.0,1.0,722.0,400.0,2.0,2.0,Congruent,90,0.2,0.5,300.0,4.0,20.0,9.0,18.0,0.44,9050,114,disc
835,RA4,0,20.0,1.0,772.0,400.0,1.0,1.0,Congruent,90,0.5,0.8,300.0,24.0,30.0,1.0,2.0,0.04,9050,115,disc
836,RA4,0,20.0,0.0,4277.0,2300.0,1.0,2.0,Congruent,90,0.3,0.5,200.0,14.0,28.0,9.0,30.0,0.64,9050,116,disc
837,RA4,0,20.0,1.0,713.0,382.0,2.0,2.0,Congruent,90,0.5,0.6,100.0,2.0,4.0,18.0,30.0,0.11,9050,117,disc
838,RA4,0,20.0,1.0,753.0,341.0,1.0,1.0,Congruent,90,0.2,0.5,300.0,7.0,14.0,5.0,25.0,0.71,9050,118,disc
839,RA4,0,20.0,1.0,637.0,420.0,2.0,2.0,Congruent,90,0.47,0.67,200.0,7.0,15.0,18.0,27.0,0.39,9050,119,disc
840,RA4,0,20.0,1.0,1040.0,340.0,1.0,1.0,Incongruent,50,0.5,0.8,300.0,8.0,10.0,12.0,24.0,0.67,9050,120,disc
841,RA4,0,20.0,1.0,895.0,280.0,1.0,1.0,Congruent,50,0.2,0.5,300.0,6.0,12.0,2.0,10.0,0.33,9050,121,disc
842,RA4,0,20.0,1.0,1123.0,202.0,2.0,2.0,Incongruent,50,0.45,0.75,300.0,9.0,20.0,3.0,4.0,0.33,9050,122,disc
843,RA4,0,20.0,1.0,990.0,338.0,1.0,1.0,Incongruent,50,0.4,0.5,100.0,4.0,8.0,12.0,30.0,0.33,9050,123,disc
844,RA4,0,20.0,1.0,1538.0,301.0,1.0,1.0,Congruent,50,0.1,0.3,200.0,3.0,10.0,1.0,10.0,0.33,9050,124,disc
845,RA4,0,20.0,1.0,900.0,203.0,2.0,2.0,Congruent,50,0.3,0.5,200.0,3.0,10.0,13.0,26.0,0.23,9050,125,disc
846,RA4,0,20.0,1.0,789.0,542.0,1.0,1.0,Congruent,50,0.8,0.9,100.0,9.0,10.0,8.0,10.0,0.89,9050,126,disc
847,RA4,0,20.0,0.0,1128.0,261.0,1.0,2.0,Incongruent,50,0.3,0.5,200.0,3.0,6.0,9.0,30.0,0.33,9050,127,disc
848,RA4,0,20.0,1.0,1101.0,1000.0,2.0,2.0,Incongruent,50,0.2,0.5,300.0,4.0,20.0,3.0,6.0,0.75,9050,128,disc
849,RA4,0,20.0,1.0,947.0,201.0,2.0,2.0,Congruent,50,0.33,0.53,200.0,9.0,27.0,16.0,30.0,0.56,9050,129,disc
850,RA4,0,20.0,1.0,759.0,401.0,1.0,1.0,Incongruent,50,0.5,0.8,300.0,8.0,10.0,11.0,22.0,0.73,9050,130,disc
851,RA4,0,20.0,0.0,960.0,281.0,1.0,2.0,Incongruent,50,0.73,0.83,100.0,10.0,12.0,22.0,30.0,0.45,9050,131,disc
852,RA4,0,20.0,1.0,889.0,440.0,2.0,2.0,Congruent,50,0.5,0.6,100.0,11.0,22.0,18.0,30.0,0.61,9050,132,disc
853,RA4,0,20.0,1.0,998.0,320.0,2.0,2.0,Incongruent,50,0.5,0.8,300.0,13.0,26.0,4.0,5.0,0.31,9050,133,disc
854,RA4,0,20.0,1.0,1067.0,361.0,2.0,2.0,Incongruent,50,0.57,0.67,100.0,17.0,30.0,2.0,3.0,0.12,9050,134,disc
855,RA4,0,20.0,1.0,958.0,299.0,2.0,2.0,Incongruent,50,0.37,0.67,300.0,11.0,30.0,6.0,9.0,0.55,9050,135,disc
856,RA4,0,20.0,0.0,1055.0,381.0,2.0,1.0,Incongruent,50,0.4,0.5,100.0,10.0,25.0,9.0,18.0,0.9,9050,136,disc
857,RA4,0,20.0,1.0,912.0,400.0,2.0,2.0,Incongruent,50,0.4,0.7,300.0,12.0,30.0,7.0,10.0,0.58,9050,137,disc
858,RA4,0,20.0,1.0,1037.0,300.0,2.0,2.0,Incongruent,50,0.47,0.67,200.0,14.0,30.0,2.0,3.0,0.14,9050,138,disc
859,RA4,0,20.0,1.0,779.0,340.0,1.0,1.0,Congruent,50,0.25,0.55,300.0,11.0,20.0,3.0,12.0,0.27,9050,139,disc
860,RA4,0,20.0,0.0,1443.0,820.0,1.0,2.0,Congruent,50,0.15,0.25,100.0,6.0,24.0,3.0,20.0,0.5,9050,140,disc
861,RA4,0,20.0,1.0,996.0,520.0,2.0,2.0,Congruent,50,0.4,0.6,200.0,2.0,5.0,12.0,20.0,0.17,9050,141,disc
862,RA4,0,20.0,0.0,1004.0,521.0,2.0,1.0,Incongruent,50,0.2,0.4,200.0,6.0,30.0,2.0,5.0,0.33,9050,142,disc
863,RA4,0,20.0,1.0,864.0,299.0,1.0,1.0,Congruent,50,0.4,0.7,300.0,21.0,30.0,4.0,10.0,0.19,9050,143,disc
864,RA4,0,20.0,1.0,1192.0,320.0,1.0,1.0,Incongruent,50,0.3,0.5,200.0,1.0,2.0,6.0,20.0,0.17,9050,144,disc
865,RA4,0,20.0,1.0,934.0,300.0,2.0,2.0,Congruent,50,0.5,0.7,200.0,11.0,22.0,21.0,30.0,0.52,9050,145,disc
866,RA4,0,20.0,1.0,788.0,381.0,2.0,2.0,Incongruent,50,0.5,0.7,200.0,11.0,22.0,7.0,10.0,0.64,9050,146,disc
867,RA4,0,20.0,1.0,1162.0,342.0,2.0,2.0,Incongruent,50,0.5,0.6,100.0,14.0,28.0,3.0,5.0,0.21,9050,147,disc
868,RA4,0,20.0,1.0,859.0,320.0,2.0,2.0,Congruent,50,0.67,0.87,200.0,12.0,18.0,26.0,30.0,0.46,9050,148,disc
869,RA4,0,20.0,1.0,826.0,380.0,2.0,2.0,Congruent,50,0.2,0.5,300.0,3.0,15.0,11.0,22.0,0.27,9050,149,disc
870,RA4,0,20.0,0.0,982.0,322.0,1.0,2.0,Incongruent,50,0.47,0.67,200.0,4.0,6.0,7.0,15.0,0.57,9050,150,disc
871,RA4,0,20.0,1.0,946.0,381.0,1.0,1.0,Congruent,50,0.5,0.6,100.0,15.0,25.0,12.0,24.0,0.8,9050,151,disc
872,RA4,0,20.0,1.0,723.0,371.0,2.0,2.0,Congruent,50,0.5,0.8,300.0,2.0,4.0,8.0,10.0,0.25,9050,152,disc
873,RA4,0,20.0,0.0,6408.0,560.0,2.0,1.0,Congruent,50,0.33,0.63,300.0,6.0,18.0,19.0,30.0,0.32,9050,153,disc
874,RA4,0,20.0,1.0,688.0,342.0,2.0,2.0,Congruent,50,0.17,0.27,100.0,2.0,12.0,4.0,15.0,0.5,9050,154,disc
875,RA4,0,20.0,0.0,816.0,323.0,1.0,2.0,Incongruent,50,0.7,0.8,100.0,12.0,15.0,14.0,20.0,0.86,9050,155,disc
876,RA4,0,20.0,1.0,1674.0,421.0,1.0,1.0,Congruent,50,0.5,0.8,300.0,16.0,20.0,3.0,6.0,0.19,9050,156,disc
877,RA4,0,20.0,1.0,1095.0,521.0,1.0,1.0,Incongruent,50,0.5,0.8,300.0,4.0,5.0,13.0,26.0,0.31,9050,157,disc
878,RA4,0,20.0,1.0,787.0,282.0,2.0,2.0,Congruent,50,0.15,0.25,100.0,3.0,20.0,4.0,16.0,0.75,9050,158,disc
879,RA4,0,20.0,1.0,961.0,360.0,1.0,1.0,Congruent,50,0.7,0.8,100.0,8.0,10.0,7.0,10.0,0.88,9050,159,disc
880,RA4,0,20.0,0.0,1194.0,400.0,1.0,2.0,Incongruent,50,0.5,0.7,200.0,7.0,10.0,8.0,16.0,0.88,9050,160,disc
881,RA4,0,20.0,1.0,883.0,421.0,2.0,2.0,Congruent,50,0.5,0.6,100.0,2.0,4.0,18.0,30.0,0.11,9050,161,disc
882,RA4,0,20.0,1.0,942.0,359.0,2.0,2.0,Incongruent,50,0.5,0.8,300.0,13.0,26.0,4.0,5.0,0.31,9050,162,disc
883,RA4,0,20.0,1.0,816.0,300.0,2.0,2.0,Congruent,50,0.1,0.4,300.0,2.0,20.0,6.0,15.0,0.33,9050,163,disc
884,RA4,0,20.0,0.0,980.0,382.0,2.0,1.0,Incongruent,50,0.5,0.6,100.0,16.0,32.0,9.0,15.0,0.56,9050,164,disc
885,RA4,0,20.0,1.0,833.0,380.0,1.0,1.0,Congruent,50,0.8,0.9,100.0,27.0,30.0,20.0,25.0,0.74,9050,165,disc
886,RA4,0,20.0,1.0,828.0,278.0,2.0,2.0,Incongruent,50,0.4,0.5,100.0,12.0,30.0,7.0,14.0,0.58,9050,166,disc
887,RA4,0,20.0,0.0,2015.0,260.0,1.0,2.0,Incongruent,50,0.5,0.6,100.0,3.0,5.0,7.0,14.0,0.43,9050,167,disc
888,RA4,0,20.0,1.0,1054.0,419.0,1.0,1.0,Incongruent,50,0.55,0.75,200.0,6.0,8.0,11.0,20.0,0.55,9050,168,disc
889,RA4,0,20.0,1.0,1147.0,481.0,1.0,1.0,Congruent,50,0.33,0.53,200.0,16.0,30.0,1.0,3.0,0.06,9050,169,disc
890,RA4,0,20.0,1.0,1133.0,222.0,2.0,2.0,Incongruent,50,0.5,0.8,300.0,9.0,18.0,8.0,10.0,0.89,9050,170,disc
891,RA4,0,20.0,1.0,1086.0,800.0,1.0,1.0,Congruent,50,0.17,0.37,200.0,11.0,30.0,4.0,24.0,0.36,9050,171,disc
892,RA4,0,20.0,1.0,977.0,241.0,2.0,2.0,Incongruent,50,0.47,0.67,200.0,14.0,30.0,2.0,3.0,0.14,9050,172,disc
893,RA4,0,20.0,1.0,745.0,480.0,1.0,1.0,Congruent,50,0.5,0.6,100.0,15.0,25.0,6.0,12.0,0.4,9050,173,disc
894,RA4,0,20.0,1.0,765.0,381.0,2.0,2.0,Incongruent,50,0.2,0.5,300.0,5.0,25.0,3.0,6.0,0.6,9050,174,disc
895,RA4,0,20.0,1.0,1805.0,801.0,1.0,1.0,Congruent,50,0.1,0.4,300.0,4.0,10.0,3.0,30.0,0.75,9050,175,disc
896,RA4,0,20.0,1.0,1048.0,320.0,2.0,2.0,Congruent,50,0.2,0.5,300.0,2.0,10.0,14.0,28.0,0.14,9050,176,disc
897,RA4,0,20.0,1.0,794.0,320.0,2.0,2.0,Congruent,50,0.33,0.43,100.0,8.0,24.0,13.0,30.0,0.62,9050,177,disc
898,RA4,0,20.0,0.0,707.0,461.0,2.0,1.0,Congruent,50,0.4,0.5,100.0,6.0,15.0,9.0,18.0,0.67,9050,178,disc
899,RA4,0,20.0,0.0,1176.0,240.0,1.0,2.0,Incongruent,50,0.2,0.5,300.0,2.0,4.0,4.0,20.0,0.5,9050,179,disc
900,RA4,0,20.0,1.0,828.0,422.0,1.0,1.0,Incongruent,50,0.5,0.8,300.0,4.0,5.0,5.0,10.0,0.8,9050,180,disc
901,RA4,0,20.0,1.0,777.0,340.0,2.0,2.0,Incongruent,50,0.4,0.5,100.0,4.0,10.0,2.0,4.0,0.5,9050,181,disc
902,RA4,0,20.0,1.0,993.0,340.0,1.0,1.0,Congruent,50,0.67,0.77,100.0,23.0,30.0,18.0,27.0,0.78,9050,182,disc
903,RA4,0,20.0,1.0,1030.0,263.0,1.0,1.0,Incongruent,50,0.3,0.5,200.0,6.0,12.0,9.0,30.0,0.67,9050,183,disc
904,RA4,0,20.0,1.0,837.0,220.0,2.0,2.0,Congruent,50,0.3,0.5,200.0,3.0,10.0,13.0,26.0,0.23,9050,184,disc
905,RA4,0,20.0,1.0,915.0,382.0,2.0,2.0,Congruent,50,0.4,0.5,100.0,12.0,30.0,13.0,26.0,0.92,9050,185,disc
906,RA4,0,20.0,1.0,932.0,240.0,1.0,1.0,Incongruent,50,0.2,0.5,300.0,4.0,8.0,6.0,30.0,0.67,9050,186,disc
907,RA4,0,20.0,1.0,922.0,300.0,2.0,2.0,Incongruent,50,0.2,0.5,300.0,3.0,15.0,1.0,2.0,0.33,9050,187,disc
908,RA4,0,20.0,0.0,1147.0,359.0,1.0,2.0,Incongruent,50,0.13,0.33,200.0,1.0,3.0,4.0,30.0,0.25,9050,188,disc
909,RA4,0,20.0,1.0,948.0,359.0,2.0,2.0,Incongruent,50,0.4,0.6,200.0,10.0,25.0,9.0,15.0,0.9,9050,189,disc
910,RA4,0,20.0,1.0,1027.0,380.0,1.0,1.0,Congruent,50,0.3,0.5,200.0,9.0,18.0,6.0,20.0,0.67,9050,190,disc
911,RA4,0,20.0,1.0,868.0,339.0,2.0,2.0,Congruent,50,0.2,0.5,300.0,2.0,10.0,4.0,8.0,0.5,9050,191,disc
912,RA4,0,20.0,0.0,2048.0,400.0,2.0,1.0,Congruent,50,0.4,0.5,100.0,2.0,5.0,14.0,28.0,0.14,9050,192,disc
913,RA4,0,20.0,1.0,1200.0,802.0,1.0,1.0,Incongruent,50,0.4,0.5,100.0,7.0,14.0,10.0,25.0,0.7,9050,193,disc
914,RA4,0,20.0,1.0,1347.0,361.0,1.0,1.0,Incongruent,50,0.2,0.5,300.0,2.0,4.0,4.0,20.0,0.5,9050,194,disc
915,RA4,0,20.0,1.0,734.0,340.0,2.0,2.0,Congruent,50,0.13,0.33,200.0,2.0,15.0,7.0,21.0,0.29,9050,195,disc
916,RA4,0,20.0,1.0,749.0,400.0,2.0,2.0,Congruent,50,0.2,0.4,200.0,3.0,15.0,8.0,20.0,0.38,9050,196,disc
917,RA4,0,20.0,1.0,778.0,419.0,2.0,2.0,Incongruent,50,0.4,0.6,200.0,8.0,20.0,6.0,10.0,0.75,9050,197,disc
918,RA4,0,20.0,1.0,869.0,416.0,1.0,1.0,Congruent,50,0.67,0.77,100.0,23.0,30.0,16.0,24.0,0.7,9050,198,disc
919,RA4,0,20.0,1.0,1031.0,361.0,1.0,1.0,Incongruent,50,0.2,0.5,300.0,2.0,4.0,5.0,25.0,0.4,9050,199,disc
920,RA4,0,20.0,0.0,695.0,478.0,1.0,2.0,Incongruent,50,0.4,0.5,100.0,8.0,16.0,10.0,25.0,0.8,9050,200,disc
921,RA4,0,20.0,1.0,1059.0,201.0,2.0,2.0,Incongruent,50,0.2,0.5,300.0,4.0,20.0,1.0,2.0,0.25,9050,201,disc
922,RA4,0,20.0,1.0,1291.0,401.0,2.0,2.0,Congruent,50,0.5,0.8,300.0,3.0,6.0,8.0,10.0,0.38,9050,202,disc
923,RA4,0,20.0,1.0,1104.0,600.0,2.0,2.0,Congruent,50,0.2,0.5,300.0,5.0,25.0,12.0,24.0,0.42,9050,203,disc
924,RA4,0,20.0,1.0,834.0,259.0,1.0,1.0,Incongruent,50,0.4,0.5,100.0,1.0,2.0,12.0,30.0,0.08,9050,204,disc
925,RA4,0,20.0,1.0,903.0,358.0,1.0,1.0,Congruent,50,0.53,0.83,300.0,15.0,18.0,8.0,15.0,0.53,9050,205,disc
926,RA4,0,20.0,0.0,1257.0,401.0,1.0,2.0,Congruent,50,0.67,0.77,100.0,23.0,30.0,16.0,24.0,0.7,9050,206,disc
927,RA4,0,20.0,1.0,1037.0,600.0,2.0,2.0,Congruent,50,0.3,0.4,100.0,9.0,30.0,10.0,25.0,0.9,9050,207,disc
928,RA4,0,20.0,1.0,853.0,302.0,2.0,2.0,Congruent,50,0.47,0.67,200.0,7.0,15.0,12.0,18.0,0.58,9050,208,disc
929,RA4,0,20.0,0.0,1046.0,441.0,1.0,2.0,Incongruent,50,0.4,0.6,200.0,3.0,5.0,4.0,10.0,0.75,9050,209,disc
930,RA4,0,20.0,1.0,848.0,400.0,2.0,2.0,Incongruent,50,0.4,0.5,100.0,12.0,30.0,1.0,2.0,0.08,9050,210,disc
931,RA4,0,20.0,1.0,1094.0,3199.0,2.0,2.0,Incongruent,50,0.5,0.6,100.0,11.0,22.0,3.0,5.0,0.27,9050,211,disc
932,RA4,0,20.0,1.0,1059.0,402.0,2.0,2.0,Congruent,50,0.5,0.7,200.0,3.0,6.0,14.0,20.0,0.21,9050,212,disc
933,RA4,0,20.0,1.0,1275.0,400.0,1.0,1.0,Incongruent,50,0.5,0.6,100.0,3.0,5.0,11.0,22.0,0.27,9050,213,disc
934,RA4,0,20.0,1.0,966.0,400.0,1.0,1.0,Incongruent,50,0.83,0.93,100.0,14.0,15.0,15.0,18.0,0.93,9050,214,disc
935,RA4,0,20.0,1.0,1067.0,341.0,1.0,1.0,Congruent,50,0.2,0.5,300.0,13.0,26.0,1.0,5.0,0.08,9050,215,disc
936,RA4,0,20.0,1.0,880.0,340.0,2.0,2.0,Congruent,50,0.67,0.97,300.0,16.0,24.0,29.0,30.0,0.55,9050,216,disc
937,RA4,0,20.0,1.0,1184.0,1400.0,2.0,2.0,Incongruent,50,0.3,0.5,200.0,9.0,30.0,1.0,2.0,0.11,9050,217,disc
938,RA4,0,20.0,1.0,1229.0,521.0,1.0,1.0,Congruent,50,0.15,0.25,100.0,4.0,16.0,3.0,20.0,0.75,9050,218,disc
939,RA4,0,20.0,1.0,881.0,201.0,2.0,2.0,Incongruent,50,0.5,0.8,300.0,13.0,26.0,4.0,5.0,0.31,9050,219,disc
940,RA4,0,20.0,1.0,828.0,400.0,2.0,2.0,Congruent,50,0.05,0.25,200.0,1.0,20.0,6.0,24.0,0.17,9050,220,disc
941,RA4,0,20.0,1.0,870.0,601.0,1.0,1.0,Congruent,50,0.5,0.7,200.0,21.0,30.0,13.0,26.0,0.62,9050,221,disc
942,RA4,0,20.0,0.0,1356.0,400.0,1.0,2.0,Incongruent,50,0.4,0.5,100.0,4.0,8.0,12.0,30.0,0.33,9050,222,disc
943,RA4,0,20.0,1.0,1085.0,386.0,2.0,2.0,Incongruent,50,0.5,0.8,300.0,11.0,22.0,8.0,10.0,0.73,9050,223,disc
944,RA4,0,20.0,1.0,1271.0,401.0,1.0,1.0,Incongruent,50,0.5,0.6,100.0,6.0,10.0,11.0,22.0,0.55,9050,224,disc
945,RA4,0,20.0,1.0,1147.0,416.0,1.0,1.0,Congruent,50,0.3,0.5,200.0,11.0,22.0,9.0,30.0,0.82,9050,225,disc
946,RA4,0,20.0,1.0,1328.0,459.0,1.0,1.0,Incongruent,50,0.3,0.5,200.0,1.0,2.0,6.0,20.0,0.17,9050,226,disc
947,RA4,0,20.0,0.0,885.0,420.0,1.0,2.0,Congruent,50,0.5,0.7,200.0,14.0,20.0,11.0,22.0,0.79,9050,227,disc
948,RA4,0,20.0,1.0,920.0,560.0,2.0,2.0,Congruent,50,0.5,0.7,200.0,8.0,16.0,21.0,30.0,0.38,9050,228,disc
949,RA4,0,20.0,1.0,1245.0,420.0,2.0,2.0,Incongruent,50,0.47,0.67,200.0,7.0,15.0,4.0,6.0,0.57,9050,229,disc
950,RA4,0,20.0,1.0,781.0,1217.0,2.0,2.0,Congruent,50,0.3,0.5,200.0,3.0,10.0,14.0,28.0,0.21,9050,230,disc
951,RA4,0,20.0,0.0,875.0,201.0,1.0,2.0,Congruent,50,0.4,0.5,100.0,14.0,28.0,12.0,30.0,0.86,9050,231,disc
952,RA4,0,20.0,1.0,1010.0,400.0,1.0,1.0,Congruent,50,0.1,0.4,300.0,4.0,10.0,3.0,30.0,0.75,9050,232,disc
953,RA4,0,20.0,1.0,754.0,417.0,2.0,2.0,Incongruent,50,0.4,0.5,100.0,12.0,30.0,7.0,14.0,0.58,9050,233,disc
954,RA4,0,20.0,1.0,890.0,400.0,2.0,2.0,Incongruent,50,0.3,0.5,200.0,3.0,10.0,1.0,2.0,0.33,9050,234,disc
955,RA4,0,20.0,1.0,867.0,281.0,2.0,2.0,Congruent,50,0.5,0.8,300.0,5.0,10.0,24.0,30.0,0.21,9050,235,disc
956,RA4,0,20.0,1.0,839.0,141.0,1.0,1.0,Congruent,50,0.5,0.8,300.0,20.0,25.0,14.0,28.0,0.7,9050,236,disc
957,RA4,0,20.0,1.0,1066.0,602.0,1.0,1.0,Congruent,50,0.5,0.8,300.0,12.0,15.0,8.0,16.0,0.67,9050,237,disc
958,RA4,0,20.0,1.0,1062.0,460.0,1.0,1.0,Incongruent,50,0.6,0.8,200.0,4.0,5.0,9.0,15.0,0.44,9050,238,disc
959,RA4,0,20.0,1.0,889.0,341.0,2.0,2.0,Incongruent,50,0.3,0.5,200.0,9.0,30.0,1.0,2.0,0.11,9050,239,disc
960,RA5,0,19.0,1.0,988.0,341.0,2.0,2.0,Congruent,90,0.4,0.5,100.0,4.0,10.0,8.0,16.0,0.5,9050,0,disc
961,RA5,0,19.0,0.0,915.0,1061.0,2.0,1.0,Congruent,90,0.2,0.5,300.0,1.0,5.0,3.0,6.0,0.33,9050,1,disc
962,RA5,0,19.0,1.0,1057.0,382.0,2.0,2.0,Congruent,90,0.5,0.6,100.0,6.0,12.0,15.0,25.0,0.4,9050,2,disc
963,RA5,0,19.0,0.0,1129.0,342.0,1.0,2.0,Incongruent,90,0.63,0.83,200.0,10.0,12.0,19.0,30.0,0.53,9050,3,disc
964,RA5,0,19.0,1.0,830.0,361.0,2.0,2.0,Congruent,90,0.05,0.25,200.0,1.0,20.0,6.0,24.0,0.17,9050,4,disc
965,RA5,0,19.0,1.0,1095.0,360.0,2.0,2.0,Congruent,90,0.5,0.6,100.0,6.0,12.0,15.0,25.0,0.4,9050,5,disc
966,RA5,0,19.0,1.0,1120.0,421.0,2.0,2.0,Congruent,90,0.3,0.5,200.0,3.0,10.0,9.0,18.0,0.33,9050,6,disc
967,RA5,0,19.0,1.0,1075.0,541.0,1.0,1.0,Congruent,90,0.6,0.8,200.0,16.0,20.0,9.0,15.0,0.56,9050,7,disc
